gx,gy,gz,ax,ay,az,tmp
0,0,0,0,0,0,36.53
590,-125,181,-166,-6,2013,30.58
773,-559,521,-283,-10,3348,29.24
1487,-1038,717,-313,-17,3770,28.75
1939,-1282,757,-324,-21,3884,28.57
488,-505,607,-329,-5,3926,28.50
122,-136,188,-321,-12,3953,28.47
-9,1,65,-323,-11,3947,28.45
-60,48,11,-327,-10,3944,28.44
-78,78,-2,-327,-17,3938,28.46
-80,82,-11,-335,-15,3942,28.47
-90,81,-19,-342,-17,3926,28.46
-91,81,-16,-335,-13,3927,28.43
-85,77,-14,-331,-13,3934,28.45
-87,81,-17,-327,-19,3946,28.46
-88,79,-17,-314,-24,3949,28.49
-90,73,-20,-318,-24,3959,28.47
-86,74,-14,-319,-11,3963,28.47
-87,76,-13,-332,-13,3944,28.50
-87,83,-16,-328,-20,3942,28.47
-86,83,-16,-333,-14,3960,28.48
-78,79,-13,-325,-4,3940,28.49
-80,79,-13,-328,2,3945,28.45
-86,79,-15,-322,-6,3939,28.49
-84,76,-12,-327,-5,3962,28.52
-86,75,-13,-326,-6,3949,28.50
-89,74,-14,-321,-9,3964,28.49
-92,77,-13,-334,-9,3968,28.49
-92,78,-16,-326,-16,3954,28.49
-87,76,-18,-331,-17,3948,28.48
-89,76,-20,-328,-5,3979,28.48
-84,80,-11,-329,-7,3969,28.49
-83,76,-11,-332,-10,3962,28.48
-87,73,-17,-331,-14,3953,28.48
-94,76,-9,-331,-14,3953,28.50
-91,80,-14,-329,-3,3956,28.51
-89,78,-7,-340,-6,3965,28.51
-86,81,-9,-329,-5,3949,28.53
-90,81,-13,-330,4,3941,28.51
-87,76,-17,-323,-1,3933,28.51
-86,75,-16,-320,-19,3950,28.50
-84,83,-10,-322,-16,3944,28.51
-87,79,-9,-329,-4,3945,28.50
-88,82,-8,-338,-7,3960,28.52
-89,80,-17,-329,-6,3950,28.53
-90,82,-15,-336,-4,3942,28.53
-88,78,-19,-335,-6,3948,28.53
-91,78,-10,-331,-6,3954,28.52
-85,76,-12,-332,-11,3962,28.53
-87,80,-13,-326,-10,3949,28.54
-86,79,-11,-331,-3,3932,28.55
-86,80,-16,-331,-7,3938,28.55
-86,78,-14,-329,-10,3951,28.54
-84,78,-15,-327,-10,3946,28.56
-84,84,-15,-330,-17,3942,28.56
-89,75,-16,-316,-11,3949,28.58
-85,78,-15,-306,-2,3959,28.56
-86,82,-16,-319,-7,3957,28.57
-86,79,-17,-321,-10,3950,28.56
-89,76,-19,-317,-3,3952,28.56
-90,78,-19,-322,-12,3960,28.55
-85,83,-19,-329,-4,3953,28.55
-85,77,-20,-314,-14,3956,28.57
-89,73,-19,-329,-12,3958,28.58
-87,81,-15,-331,-12,3949,28.58
-84,86,-13,-332,-5,3949,28.55
-84,74,-18,-330,-7,3970,28.55
-89,78,-12,-327,-17,3953,28.56
-85,77,-10,-326,-16,3961,28.58
-87,78,-16,-323,-10,3966,28.57
-89,82,-14,-327,-17,3957,28.56
-92,74,-15,-319,-10,3964,28.57
-88,78,-12,-320,-13,3967,28.57
-89,78,-17,-314,-13,3967,28.57
-86,85,-11,-315,-5,3964,28.58
-86,82,-14,-321,-16,3962,28.58
-91,78,-19,-319,-11,3951,28.57
-87,76,-15,-311,-14,3948,28.58
-85,77,-16,-316,-10,3952,28.58
-81,77,-17,-321,-7,3947,28.59
-85,74,-15,-324,11,3946,28.59
-85,75,-12,-318,-2,3951,28.60
-85,76,-14,-323,1,3961,28.60
-81,69,-14,-324,-5,3970,28.59
-86,73,-18,-333,-13,3953,28.59
-90,81,-14,-329,-8,3945,28.59
-94,76,-15,-332,-5,3953,28.61
-92,78,-15,-331,-6,3963,28.61
-92,74,-16,-328,-10,3966,28.59
-85,72,-15,-338,-18,3949,28.58
-82,71,-17,-332,-11,3941,28.59
-83,81,-20,-322,-17,3953,28.59
-86,84,-16,-331,-15,3952,28.60
-84,81,-19,-319,-17,3942,28.62
-86,78,-19,-330,-11,3941,28.62
-83,75,-16,-334,-5,3945,28.62
-83,76,-13,-322,-8,3952,28.59
-85,80,-13,-325,-10,3943,28.62
-87,79,-16,-326,-4,3953,28.60
-89,78,-14,-322,-3,3938,28.60
-87,76,-14,-315,-8,3955,28.62
-86,79,-15,-320,-13,3938,28.62
-83,79,-16,-321,-8,3931,28.61
-90,83,-15,-327,-8,3943,28.61
-86,81,-12,-333,-17,3937,28.62
-84,80,-9,-321,-14,3947,28.60
-84,77,-12,-329,-6,3952,28.61
-85,82,-12,-333,-1,3940,28.63
-88,81,-11,-334,-6,3940,28.63
-87,77,-14,-324,-12,3948,28.63
-87,72,-12,-328,-8,3932,28.65
-91,78,-13,-331,-2,3930,28.63
-87,70,-12,-330,-5,3948,28.62
-91,71,-13,-323,-6,3953,28.62
-86,72,-17,-322,1,3945,28.62
-90,79,-18,-323,-10,3938,28.62
-88,82,-17,-325,-1,3942,28.61
-93,88,-15,-324,9,3952,28.62
-93,83,-13,-332,2,3943,28.62
-88,87,-11,-330,-2,3948,28.63
-89,80,-14,-329,-12,3951,28.64
-85,76,-12,-326,-14,3956,28.65
-89,77,-14,-327,-18,3957,28.65
-88,77,-13,-329,-10,3962,28.64
-85,74,-16,-337,-15,3945,28.65
-86,75,-15,-328,-1,3953,28.63
-86,71,-16,-329,-5,3956,28.65
-89,71,-17,-328,7,3948,28.63
-86,79,-15,-331,-2,3947,28.64
-85,85,-14,-327,0,3962,28.62
-88,80,-16,-326,-10,3937,28.64
-83,78,-13,-326,5,3955,28.65
-86,71,-17,-314,1,3948,28.63
-85,86,-17,-315,1,3932,28.62
-91,74,-16,-322,-3,3948,28.65
-86,79,-14,-328,-11,3955,28.66
-89,75,-16,-327,-10,3968,28.68
-88,80,-12,-330,-11,3949,28.67
-83,82,-14,-329,-15,3942,28.65
-84,77,-15,-323,-15,3954,28.66
-90,69,-11,-322,-18,3960,28.64
-87,76,-15,-325,-6,3961,28.65
-82,84,-11,-324,-11,3962,28.66
-85,76,-13,-319,-10,3956,28.66
-87,77,-13,-320,-16,3960,28.67
-84,79,-14,-325,-20,3946,28.65
-86,77,-14,-325,-7,3943,28.66
-87,76,-15,-329,-14,3951,28.65
-91,75,-13,-321,-15,3941,28.67
-85,80,-12,-322,0,3937,28.65
-87,77,-10,-324,4,3934,28.66
-83,77,-16,-328,-13,3936,28.67
-91,77,-13,-327,-14,3952,28.65
-93,79,-15,-322,-3,3956,28.66
-94,79,-15,-316,-4,3956,28.67
-88,80,-11,-324,-11,3945,28.68
-87,79,-13,-325,-13,3947,28.67
-86,76,-17,-328,-15,3947,28.68
-84,75,-16,-325,-18,3950,28.70
-91,74,-16,-325,-13,3947,28.69
-94,82,-17,-326,-12,3969,28.70
-91,79,-15,-322,-12,3967,28.67
-90,75,-13,-323,-18,3951,28.69
-85,82,-9,-325,-13,3929,28.70
-86,79,-13,-328,-3,3939,28.69
-86,84,-13,-331,3,3934,28.69
-90,83,-13,-329,-8,3950,28.69
-93,81,-15,-331,1,3942,28.68
-94,81,-14,-323,-1,3954,28.67
-84,83,-16,-330,-14,3954,28.69
-90,81,-15,-327,-2,3943,28.70
-85,81,-14,-331,-6,3950,28.72
-85,78,-14,-327,-5,3952,28.71
-87,80,-11,-324,-6,3948,28.69
-88,77,-16,-331,-9,3944,28.71
-90,77,-13,-337,-5,3959,28.71
-82,80,-20,-328,1,3966,28.68
-86,78,-18,-325,0,3976,28.68
-91,78,-14,-331,-16,3961,28.70
-85,82,-10,-330,-9,3965,28.69
-88,81,-13,-338,-14,3957,28.69
-88,81,-12,-324,-22,3946,28.69
-86,83,-19,-330,-19,3951,28.69
-89,75,-17,-328,-15,3956,28.71
-83,78,-11,-316,-19,3935,28.72
-87,80,-14,-325,-10,3950,28.69
-87,83,-11,-331,-5,3954,28.70
-90,80,-13,-327,1,3950,28.71
-84,79,-13,-331,-12,3931,28.69
-84,81,-14,-332,-5,3936,28.72
-83,81,-17,-331,-13,3959,28.71
-86,76,-16,-325,-20,3963,28.71
-86,79,-13,-323,-9,3956,28.70
-87,78,-14,-323,-23,3955,28.71
-86,82,-17,-326,-22,3950,28.69
-80,79,-14,-331,-20,3936,28.69
-84,75,-18,-330,-26,3938,28.69
-89,74,-15,-326,-26,3942,28.71
-92,80,-12,-322,-19,3942,28.70
-92,79,-15,-323,-13,3936,28.72
-87,87,-13,-315,-6,3950,28.74
-89,81,-11,-336,-12,3943,28.73
-89,84,-11,-335,-8,3954,28.72
-85,85,-14,-341,-8,3963,28.73
-86,83,-13,-325,-8,3963,28.71
-86,73,-13,-330,-12,3960,28.73
-84,78,-15,-329,-27,3956,28.72
-83,74,-12,-329,-8,3951,28.73
-85,75,-13,-331,5,3941,28.72
-86,76,-11,-328,2,3945,28.70
-88,85,-13,-335,-12,3943,28.73
-86,84,-15,-335,-12,3956,28.70
-87,83,-9,-332,0,3950,28.71
-84,87,-16,-325,-10,3957,28.71
-86,80,-15,-328,-22,3951,28.72
-86,78,-22,-321,-2,3949,28.72
-88,76,-16,-330,-11,3952,28.72
-82,77,-18,-330,-8,3953,28.73
-86,80,-16,-322,-12,3957,28.73
-82,77,-16,-317,-3,3956,28.74
-86,73,-13,-328,2,3953,28.74
-90,72,-13,-324,-13,3961,28.72
-82,73,-18,-329,-14,3959,28.73
-88,77,-10,-320,-13,3953,28.72
-86,80,-11,-315,-11,3954,28.72
-83,84,-15,-322,-5,3956,28.72
-83,80,-18,-327,-6,3942,28.73
-87,84,-19,-326,-7,3956,28.73
-87,84,-18,-324,-6,3953,28.75
-89,81,-10,-321,0,3961,28.74
-89,77,-15,-325,-11,3947,28.73
-83,75,-16,-320,-10,3956,28.74
-84,77,-15,-338,-12,3946,28.73
-82,78,-14,-332,-7,3945,28.74
-87,76,-10,-322,-10,3944,28.73
-88,79,-11,-325,-17,3954,28.73
-90,83,-12,-330,-4,3955,28.72
-87,77,-15,-318,8,3947,28.72
-85,75,-12,-316,-7,3955,28.74
-89,82,-18,-318,-17,3958,28.72
-89,84,-16,-322,-2,3966,28.74
-81,85,-15,-315,-3,3954,28.74
-87,80,-16,-308,6,3954,28.75
-88,74,-16,-327,3,3926,28.74
-86,76,-19,-325,-5,3945,28.74
-85,80,-15,-332,-8,3948,28.73
-87,78,-16,-333,-10,3958,28.72
-89,79,-15,-334,1,3965,28.74
-84,74,-19,-327,-8,3956,28.75
-81,75,-17,-325,-9,3959,28.75
-92,79,-22,-335,-6,3966,28.74
-91,74,-21,-340,-3,3961,28.76
-87,77,-18,-335,-3,3954,28.78
-87,84,-14,-324,-7,3957,28.76
-86,79,-15,-332,-8,3966,28.76
-85,74,-19,-325,-4,3953,28.77
-86,75,-17,-328,-4,3948,28.75
-88,81,-15,-324,-14,3957,28.76
-82,84,-10,-332,-7,3935,28.76
-85,82,-14,-336,-7,3931,28.76
-93,82,-15,-336,-11,3926,28.78
-86,75,-17,-332,-7,3934,28.77
-87,77,-17,-330,-5,3941,28.78
-83,81,-18,-326,-6,3948,28.76
-88,79,-17,-323,-11,3949,28.76
-92,84,-16,-319,-9,3965,28.76
-90,84,-18,-323,-5,3946,28.75
-87,85,-20,-330,-4,3950,28.74
-82,83,-22,-323,-1,3963,28.77
-85,84,-21,-326,-7,3942,28.76
-91,80,-17,-322,-2,3956,28.77
-83,78,-21,-320,-20,3958,28.76
-87,85,-20,-328,-4,3955,28.76
-87,78,-18,-331,-1,3952,28.75
-91,76,-17,-329,-9,3935,28.76
-84,75,-14,-336,-18,3947,28.76
-86,77,-14,-319,-20,3957,28.76
-82,79,-18,-316,-2,3941,28.78
-82,77,-18,-316,-8,3936,28.76
-80,84,-19,-324,-7,3930,28.76
-81,78,-19,-324,-19,3941,28.76
-87,78,-18,-320,-11,3955,28.77
-84,79,-16,-323,-4,3947,28.78
-85,80,-19,-326,-9,3942,28.77
-84,79,-15,-322,-20,3941,28.77
-93,75,-20,-318,-19,3949,28.77
-88,76,-19,-322,-9,3957,28.78
-85,78,-16,-327,-4,3961,28.79
-84,79,-21,-324,-13,3944,28.78
-87,75,-17,-328,-4,3947,28.78
-86,75,-13,-334,-5,3953,28.78
-89,76,-15,-326,-16,3954,28.77
-91,80,-13,-337,-13,3954,28.77
-90,75,-14,-328,-8,3940,28.76
-86,80,-12,-320,-6,3950,28.78
-86,75,-15,-324,-1,3967,28.78
-83,76,-15,-322,-12,3958,28.79
-85,73,-14,-321,-8,3953,28.79
-79,76,-13,-331,-16,3936,28.81
-82,75,-12,-333,-16,3938,28.80
-87,79,-16,-330,-12,3937,28.79
-91,75,-12,-331,-17,3946,28.77
-88,74,-16,-329,-23,3952,28.77
-90,76,-14,-329,-23,3954,28.78
-89,80,-17,-320,-9,3937,28.78
-88,80,-14,-326,-6,3944,28.79
-89,76,-16,-321,-7,3943,28.77
-86,80,-15,-322,-11,3959,28.79
-85,78,-18,-322,-1,3959,28.79
-87,79,-17,-316,-18,3937,28.78
-93,72,-22,-318,-7,3948,28.79
-92,80,-17,-335,-5,3950,28.79
-88,77,-23,-331,-9,3962,28.80
-85,82,-18,-334,-12,3958,28.82
-86,79,-17,-332,-8,3955,28.79
-85,77,-14,-334,-9,3943,28.83
-84,79,-14,-330,-19,3948,28.79
-89,81,-11,-325,-21,3952,28.80
-91,79,-18,-320,-6,3958,28.82
-86,77,-9,-331,3,3949,28.79
-83,81,-14,-335,-5,3943,28.79
-82,77,-12,-343,-9,3939,28.79
-85,81,-16,-328,-4,3934,28.77
-85,79,-16,-328,-7,3952,28.78
-84,79,-19,-324,-17,3966,28.79
-90,81,-14,-326,-14,3960,28.81
-96,81,-13,-324,-13,3958,28.81
-92,77,-13,-324,-13,3955,28.79
-83,75,-15,-330,-10,3962,28.81
-89,78,-17,-332,-5,3946,28.81
-84,76,-15,-322,-16,3957,28.82
-84,79,-15,-314,-13,3943,28.80
-85,78,-19,-332,-8,3934,28.79
-86,78,-13,-322,2,3950,28.79
-87,75,-18,-319,-3,3936,28.78
-88,75,-15,-331,-8,3951,28.79
-87,79,-12,-318,-7,3932,28.80
-88,79,-12,-327,-7,3929,28.78
-86,75,-16,-339,-5,3944,28.79
-88,74,-15,-330,-12,3965,28.78
-86,75,-13,-329,-11,3953,28.79
-86,75,-16,-321,-12,3956,28.80
-88,74,-17,-312,-3,3944,28.78
-90,76,-15,-322,-1,3933,28.81
-92,74,-16,-323,-9,3945,28.81
-89,80,-14,-330,-8,3945,28.81
-85,77,-16,-323,4,3937,28.82
-90,77,-17,-321,-3,3944,28.82
-91,75,-13,-331,-11,3959,28.81
-90,73,-15,-339,-9,3959,28.81
-89,74,-14,-340,-6,3948,28.81
-88,76,-20,-337,-8,3944,28.82
-90,84,-16,-337,-6,3954,28.84
-86,81,-11,-328,-11,3949,28.83
-82,83,-7,-334,-2,3938,28.81
-81,79,-14,-325,-6,3939,28.83
-78,79,-13,-333,-11,3936,28.83
-88,77,-18,-327,-20,3933,28.82
-85,79,-13,-325,-16,3936,28.81
-84,76,-13,-328,-4,3950,28.80
-84,75,-14,-328,-1,3942,28.82
-88,81,-14,-323,-12,3956,28.83
-84,80,-15,-329,-23,3954,28.82
-83,81,-16,-340,-19,3940,28.82
-90,79,-17,-333,-15,3945,28.81
-84,79,-19,-316,-14,3965,28.82
-82,79,-14,-324,-12,3952,28.80
-85,82,-17,-323,-7,3964,28.82
-89,78,-13,-329,3,3964,28.82
-91,79,-14,-327,-1,3947,28.84
-92,79,-15,-330,-3,3950,28.83
-92,80,-14,-331,-8,3943,28.84
-90,81,-15,-334,-6,3954,28.80
-88,79,-15,-328,-11,3939,28.83
-92,82,-15,-322,-17,3944,28.82
-87,89,-19,-317,-7,3940,28.81
-90,83,-19,-320,-5,3942,28.82
-82,77,-16,-323,-7,3944,28.82
-85,80,-15,-328,-12,3948,28.84
-82,79,-18,-324,-13,3951,28.84
-85,84,-19,-332,-16,3956,28.84
-85,82,-20,-329,-15,3943,28.83
-86,79,-14,-322,-7,3945,28.82
-82,78,-17,-333,0,3952,28.84
-86,79,-16,-326,-10,3947,28.83
-85,81,-18,-314,-10,3943,28.85
-83,71,-16,-324,-15,3940,28.84
-85,72,-10,-321,-16,3932,28.84
-80,77,-13,-333,-18,3932,28.82
-84,78,-15,-328,-23,3944,28.84
-80,80,-11,-336,-6,3945,28.87
-84,76,-13,-327,-3,3951,28.84
-86,79,-10,-319,-1,3939,28.85
-88,81,-17,-323,-6,3940,28.84
-90,76,-16,-322,-2,3951,28.83
-91,80,-16,-326,5,3957,28.82
-87,81,-14,-329,-12,3950,28.84
-85,76,-17,-334,-18,3962,28.84
-85,81,-17,-326,-20,3944,28.86
-83,81,-18,-332,-9,3947,28.84
-83,76,-13,-328,-10,3952,28.85
-87,74,-13,-328,-10,3941,28.84
-83,81,-15,-328,-8,3942,28.83
-83,77,-14,-326,-8,3944,28.83
-87,76,-17,-325,-7,3940,28.82
-84,78,-18,-332,-3,3953,28.82
-91,80,-16,-332,0,3953,28.83
-92,76,-16,-331,-7,3943,28.84
-86,75,-14,-325,-9,3960,28.83
-82,76,-17,-332,-18,3958,28.84
-85,87,-12,-343,-16,3949,28.84
-86,85,-14,-331,-8,3958,28.84
-87,85,-15,-335,-12,3951,28.84
-89,81,-13,-328,2,3954,28.83
-90,81,-16,-323,-4,3945,28.83
-87,79,-9,-340,-9,3931,28.83
-86,78,-13,-333,-2,3944,28.84
-82,80,-16,-335,-6,3941,28.85
-87,79,-10,-329,-7,3929,28.88
-83,77,-18,-336,-9,3936,28.86
-87,78,-20,-331,-12,3949,28.85
-89,85,-17,-325,-15,3934,28.85
-90,82,-17,-322,-9,3952,28.86
-88,82,-14,-324,-9,3951,28.85
-86,87,-11,-323,-14,3944,28.86
-83,77,-14,-326,-14,3942,28.86
-86,84,-15,-318,-13,3956,28.85
-87,77,-16,-335,-11,3950,28.85
-94,75,-16,-332,-14,3959,28.87
-93,77,-20,-327,-18,3940,28.87
-88,79,-18,-322,-14,3936,28.84
-86,81,-14,-328,-2,3940,28.84
-89,81,-16,-319,-3,3946,28.83
-89,80,-18,-325,-17,3954,28.84
-87,84,-18,-322,-6,3952,28.87
-90,77,-16,-325,-9,3947,28.87
-89,75,-11,-326,1,3949,28.86
-85,68,-9,-331,2,3945,28.88
-88,71,-12,-318,0,3937,28.88
-87,81,-15,-330,-9,3957,28.88
-93,81,-16,-324,-22,3949,28.87
-87,82,-12,-334,-13,3950,28.86
-87,77,-15,-342,-17,3941,28.85
-87,82,-13,-341,-9,3953,28.83
-83,81,-14,-324,-12,3939,28.83
-85,83,-10,-325,-7,3966,28.84
-88,76,-13,-325,-8,3953,28.86
-84,80,-16,-318,-9,3954,28.85
-80,81,-18,-322,-7,3954,28.88
-83,81,-14,-330,-7,3974,28.86
-87,82,-14,-331,-8,3953,28.87
-85,78,-13,-330,-9,3950,28.87
-86,82,-17,-320,-11,3948,28.87
-87,79,-16,-324,-4,3942,28.87
-85,77,-14,-335,-7,3944,28.87
-80,79,-15,-325,-13,3924,28.87
-81,79,-17,-326,-27,3947,28.85
-82,80,-18,-325,-14,3947,28.86
-86,81,-17,-319,-12,3938,28.87
-85,81,-13,-318,-8,3941,28.88
-84,73,-10,-322,-8,3951,28.87
-85,71,-17,-323,-2,3941,28.89
-82,77,-15,-331,-8,3954,28.86
-82,78,-12,-327,-8,3948,28.87
-85,76,-14,-323,-4,3949,28.87
-81,75,-13,-323,-17,3946,28.87
-81,81,-12,-329,-5,3935,28.86
-83,79,-15,-326,2,3934,28.85
-85,77,-12,-321,2,3959,28.85
-89,76,-13,-324,-6,3951,28.86
-84,79,-16,-323,-17,3932,28.86
-86,79,-15,-332,-9,3941,28.88
-86,84,-17,-323,-3,3961,28.88
-87,83,-20,-318,-17,3953,28.88
-90,83,-18,-326,-10,3949,28.86
-87,76,-19,-325,-4,3937,28.84
-86,79,-15,-329,-3,3953,28.84
-87,81,-16,-333,-3,3959,28.86
-86,80,-19,-327,-12,3956,28.87
-90,78,-16,-324,-16,3962,28.86
-86,75,-16,-321,-15,3963,28.88
-86,76,-11,-324,-8,3950,28.87
-86,78,-13,-316,-11,3950,28.88
-89,80,-12,-314,-1,3945,28.85
-90,84,-16,-318,-8,3947,28.87
-79,77,-15,-328,-3,3944,28.86
-85,75,-18,-334,-12,3937,28.84
-82,70,-13,-323,-20,3931,28.85
-89,72,-15,-321,-10,3939,28.86
-88,72,-18,-326,-16,3948,28.86
-88,81,-18,-315,-17,3951,28.86
-84,81,-20,-326,-12,3965,28.86
-89,83,-17,-325,-2,3964,28.85
-87,80,-14,-330,-3,3954,28.86
-83,74,-17,-331,-7,3962,28.87
-82,85,-12,-329,-13,3970,28.86
-82,87,-10,-347,-14,3956,28.87
-91,84,-14,-334,-13,3950,28.86
-89,72,-15,-330,-15,3954,28.85
-85,69,-12,-344,0,3955,28.85
-83,76,-10,-348,-10,3959,28.87
-85,76,-14,-322,-3,3959,28.87
-88,75,-16,-330,-1,3948,28.88
-88,82,-13,-324,-3,3961,28.87
-83,77,-17,-330,-5,3939,28.89
-84,80,-14,-327,-4,3933,28.88
-79,74,-18,-325,-6,3945,28.86
-85,83,-19,-320,-9,3951,28.88
-92,75,-19,-325,-5,3959,28.87
-89,77,-14,-317,-4,3954,28.85
-89,81,-14,-320,-13,3948,28.87
-84,74,-13,-332,-15,3952,28.87
-90,76,-16,-332,-15,3950,28.89
-90,75,-14,-321,-13,3947,28.89
-89,75,-17,-325,-9,3944,28.89
-87,79,-16,-322,-7,3938,28.91
-83,82,-16,-326,-9,3945,28.89
-88,77,-17,-315,-6,3945,28.86
-88,71,-14,-313,-6,3942,28.87
-87,73,-15,-305,-11,3943,28.87
-83,77,-17,-309,-11,3944,28.87
-83,77,-10,-322,-8,3946,28.88
-90,77,-14,-326,-9,3940,28.87
-93,77,-9,-319,-9,3934,28.88
-88,84,-13,-327,-20,3942,28.87
-92,90,-11,-331,-22,3947,28.89
-91,85,-13,-334,-20,3949,28.89
-86,78,-13,-327,-20,3952,28.89
-88,74,-12,-319,-17,3955,28.91
-88,75,-13,-336,-15,3950,28.91
-93,71,-16,-331,-22,3949,28.87
-91,68,-16,-326,-17,3951,28.87
-83,69,-16,-332,-9,3942,28.88
-88,69,-17,-323,-10,3935,28.88
-89,76,-14,-334,-6,3941,28.87
-87,79,-22,-325,-1,3943,28.88
-85,80,-18,-319,-3,3953,28.87
-90,90,-15,-327,-6,3954,28.88
-87,87,-15,-318,-8,3951,28.89
-89,77,-16,-327,-13,3952,28.88
-87,77,-17,-317,-22,3943,28.89
-87,77,-12,-322,-14,3949,28.89
-83,73,-16,-333,-14,3938,28.88
-84,82,-16,-339,-6,3942,28.87
-86,91,-20,-337,-9,3952,28.88
-86,87,-21,-329,-20,3938,28.90
-90,81,-17,-330,-26,3934,28.89
-79,76,-20,-325,-15,3941,28.89
-79,70,-13,-322,-5,3944,28.88
-82,74,-13,-321,-11,3938,28.91
-88,74,-17,-318,-11,3934,28.89
-81,73,-17,-323,-13,3930,28.89
-83,70,-14,-326,-5,3935,28.89
-81,72,-16,-322,-3,3956,28.89
-84,77,-16,-325,-11,3956,28.90
-83,81,-13,-321,0,3957,28.90
-83,84,-15,-315,-5,3956,28.89
-89,80,-19,-327,-7,3969,28.87
-86,79,-21,-333,-17,3961,28.87
-91,84,-18,-339,-14,3945,28.89
-89,83,-18,-339,-7,3941,28.91
-91,81,-17,-334,-6,3954,28.90
-90,81,-18,-344,-9,3954,28.89
-88,74,-11,-325,-4,3949,28.89
-85,78,-15,-319,-15,3934,28.89
-82,80,-17,-326,-18,3942,28.88
-86,73,-16,-330,-8,3943,28.89
-86,79,-13,-327,-12,3962,28.88
-85,78,-15,-317,-15,3959,28.87
-83,83,-17,-329,-20,3955,28.90
-85,81,-12,-317,-10,3936,28.90
-85,73,-14,-309,-12,3932,28.89
-85,72,-17,-315,-4,3941,28.89
-87,80,-18,-316,-12,3953,28.90
-85,87,-13,-320,-7,3951,28.90
-83,85,-15,-317,-6,3929,28.89
-81,80,-14,-324,-12,3935,28.90
-86,74,-14,-333,-21,3942,28.90
-85,72,-17,-332,-22,3942,28.89
-86,78,-22,-337,-11,3943,28.89
-84,72,-20,-330,-10,3936,28.88
-82,78,-20,-330,-14,3925,28.91
-84,74,-19,-339,-23,3935,28.90
-88,73,-17,-336,-9,3938,28.88
-89,71,-23,-333,-14,3935,28.92
-88,73,-19,-331,-4,3953,28.92
-87,72,-17,-334,-17,3949,28.90
-85,76,-11,-330,-11,3958,28.90
-86,78,-14,-318,-7,3955,28.90
-87,82,-12,-314,-9,3937,28.92
-84,80,-15,-323,-1,3938,28.91
-84,82,-16,-324,-6,3950,28.88
-87,84,-15,-321,-9,3950,28.89
-83,79,-16,-328,-9,3950,28.91
-86,81,-18,-327,-12,3948,28.92
-85,81,-16,-329,-14,3934,28.91
-90,79,-14,-324,-13,3932,28.92
-85,82,-12,-333,-7,3953,28.92
-91,75,-15,-331,-13,3965,28.90
-86,79,-14,-337,-14,3936,28.89
-85,74,-17,-335,-10,3951,28.91
-85,83,-18,-330,-8,3958,28.90
-86,81,-15,-331,-12,3951,28.90
-82,81,-18,-325,-13,3965,28.91
-80,84,-12,-324,-9,3955,28.89
-87,80,-20,-321,-18,3942,28.89
-89,77,-17,-319,-14,3941,28.91
-91,73,-16,-328,-13,3951,28.92
-83,80,-16,-330,-9,3942,28.92
-85,73,-16,-336,-5,3938,28.91
-79,73,-14,-330,-3,3938,28.92
-81,82,-16,-331,-1,3960,28.91
-84,76,-19,-318,-10,3945,28.90
-84,82,-18,-330,-6,3964,28.91
-86,82,-17,-323,-10,3950,28.92
-87,84,-21,-328,-5,3946,28.93
-88,78,-15,-332,-15,3949,28.92
-87,77,-19,-330,-4,3941,28.91
-83,75,-16,-330,-10,3929,28.91
-86,78,-12,-325,-15,3935,28.92
-84,74,-15,-322,-9,3933,28.89
-85,73,-13,-315,-17,3955,28.92
-89,81,-23,-321,-5,3941,28.89
-87,82,-12,-331,-2,3936,28.91
-89,81,-17,-322,-4,3956,28.92
-87,77,-15,-326,-8,3954,28.92
-87,78,-18,-324,-9,3975,28.92
-87,74,-19,-319,-5,3957,28.93
-86,81,-15,-325,-4,3956,28.92
-83,80,-14,-330,-15,3961,28.92
-84,76,-13,-329,-9,3947,28.88
-89,79,-14,-318,-14,3953,28.89
-84,76,-20,-324,-11,3964,28.90
-87,80,-16,-336,-10,3948,28.92
-88,79,-20,-328,-18,3938,28.92
-82,72,-16,-331,-17,3936,28.92
-87,80,-17,-329,-10,3946,28.93
-88,84,-15,-334,-6,3948,28.93
-89,82,-15,-325,-5,3954,28.94
-90,79,-14,-322,-2,3942,28.92
-92,82,-17,-323,-2,3946,28.91
-95,71,-18,-323,-9,3932,28.90
-88,76,-12,-330,-12,3949,28.92
-87,80,-13,-324,-5,3951,28.91
-89,72,-13,-329,-11,3959,28.91
-88,74,-15,-331,-2,3957,28.92
-87,74,-14,-326,-3,3956,28.92
-96,81,-11,-324,-7,3945,28.92
-89,77,-10,-333,-8,3964,28.93
-89,81,-13,-324,-8,3957,28.93
-83,81,-12,-324,-4,3952,28.92
-87,73,-14,-318,-7,3947,28.92
-81,79,-11,-322,-7,3938,28.92
-92,76,-18,-329,-13,3938,28.92
-88,80,-15,-324,-10,3939,28.96
-86,77,-14,-324,-10,3950,28.94
-82,83,-16,-321,-5,3950,28.93
-84,77,-12,-338,-10,3962,28.92
-81,78,-17,-324,-21,3945,28.89
-87,74,-12,-325,-13,3935,28.92
-88,72,-16,-318,-5,3935,28.94
-88,74,-17,-330,9,3956,28.93
-88,73,-20,-332,-2,3965,28.92
-80,82,-14,-328,0,3950,28.91
-85,81,-14,-328,-15,3947,28.92
-84,82,-14,-324,-8,3943,28.92
-92,79,-17,-333,-10,3951,28.92
-90,80,-13,-327,-4,3962,28.94
-90,79,-13,-327,-1,3950,28.92
-89,80,-12,-327,-4,3946,28.93
-81,79,-12,-326,-11,3962,28.91
-80,80,-16,-327,-7,3950,28.92
-80,80,-18,-330,-13,3957,28.94
-89,85,-16,-328,-9,3947,28.94
-86,79,-16,-329,3,3946,28.93
-89,75,-16,-327,-17,3941,28.94
-88,73,-17,-324,-9,3946,28.93
-88,78,-18,-328,-8,3941,28.92
-86,75,-12,-332,-10,3941,28.91
-89,77,-16,-324,-7,3923,28.93
-87,77,-14,-327,-8,3949,28.92
-82,78,-17,-341,-5,3938,28.91
-89,80,-15,-328,-6,3944,28.95
-90,82,-18,-326,-8,3945,28.92
-88,77,-14,-327,-12,3943,28.93
-86,75,-11,-328,-7,3950,28.92
-86,81,-10,-332,-14,3955,28.93
-85,81,-13,-345,-9,3945,28.94
-87,83,-14,-347,-14,3946,28.92
-90,84,-15,-340,-8,3948,28.92
-85,78,-13,-328,0,3958,28.93
-86,76,-13,-335,-7,3932,28.92
-86,78,-15,-329,-1,3932,28.92
-83,82,-15,-331,-7,3928,28.92
-83,77,-13,-320,-14,3937,28.92
-82,75,-14,-334,-10,3966,28.94
-87,79,-16,-326,-23,3948,28.93
-91,77,-9,-321,-16,3946,28.94
-90,77,-11,-323,-1,3941,28.91
-83,80,-11,-324,-7,3951,28.92
-84,77,-17,-342,-7,3947,28.94
-84,87,-15,-333,-5,3950,28.93
-85,80,-15,-336,-13,3954,28.94
-86,79,-15,-333,-15,3943,28.93
-86,83,-18,-321,-17,3948,28.94
-87,77,-19,-322,-11,3949,28.93
-87,79,-15,-325,-7,3945,28.94
-85,78,-13,-332,-15,3945,28.91
-87,73,-17,-328,-1,3952,28.92
-88,76,-16,-329,-4,3941,28.93
-84,80,-14,-332,1,3955,28.94
-89,81,-16,-332,-5,3954,28.95
-82,80,-14,-326,-14,3933,28.95
-84,78,-14,-325,-9,3941,28.93
-84,79,-18,-313,-9,3946,28.96
-86,79,-15,-316,-12,3952,28.93
-85,75,-14,-321,-11,3936,28.93
-85,72,-14,-331,-13,3948,28.94
-87,76,-19,-327,-8,3944,28.92
-86,84,-16,-330,-5,3952,28.95
-86,80,-14,-330,-6,3953,28.95
-82,82,-12,-331,-15,3937,28.93
-84,78,-14,-328,-15,3933,28.94
-78,75,-16,-340,-6,3947,28.92
-84,80,-18,-331,-3,3943,28.92
-85,83,-15,-321,-5,3962,28.96
-80,77,-19,-333,-6,3956,28.93
-82,77,-17,-328,-4,3958,28.93
-86,74,-21,-323,-16,3939,28.94
-84,81,-22,-321,-6,3952,28.94
-86,81,-19,-332,-8,3941,28.94
-85,80,-18,-332,-5,3938,28.94
-82,78,-20,-326,-16,3947,28.94
-85,84,-21,-331,-11,3934,28.93
-85,74,-13,-323,-2,3927,28.94
-76,75,-18,-324,-13,3937,28.96
-83,82,-20,-324,-12,3944,28.95
-83,78,-20,-331,-10,3955,28.94
-89,76,-22,-324,-13,3958,28.92
-86,82,-19,-328,-18,3952,28.94
-89,76,-16,-329,-18,3940,28.95
-88,76,-15,-331,-11,3947,28.96
-86,79,-15,-330,-4,3950,28.95
-88,80,-14,-331,-6,3954,28.94
-87,79,-11,-328,-3,3943,28.96
-82,73,-14,-331,-15,3948,28.96
-82,76,-15,-327,-14,3952,28.96
-88,80,-16,-334,-12,3950,28.94
-86,80,-15,-332,-9,3941,28.93
-91,75,-18,-330,-4,3958,28.92
-90,80,-14,-329,-7,3946,28.95
-86,74,-15,-325,-6,3934,28.95
-85,76,-17,-331,-8,3935,28.95
-83,75,-16,-331,-2,3927,28.95
-85,78,-15,-336,2,3927,28.97
-85,83,-15,-334,5,3929,28.97
-89,76,-16,-331,1,3927,28.96
-85,75,-14,-328,-2,3936,28.95
-86,72,-14,-325,-6,3931,28.94
-83,76,-11,-323,-11,3936,28.94
-80,78,-12,-330,-12,3933,28.95
-79,84,-9,-345,-17,3938,28.95
-78,84,-12,-326,-12,3948,28.95
-81,82,-18,-328,-17,3952,28.93
-84,75,-16,-323,-5,3946,28.94
-86,78,-20,-317,-11,3947,28.96
-90,78,-17,-322,-2,3944,28.94
-84,84,-14,-330,-2,3948,28.93
-82,80,-15,-326,-13,3941,28.91
-88,80,-15,-326,-12,3936,28.95
-89,79,-16,-323,-16,3943,28.93
-87,78,-19,-327,-12,3927,28.93
-83,75,-14,-329,-7,3910,28.95
-87,81,-18,-332,2,3945,28.96
-82,81,-17,-326,-1,3954,28.97
-87,73,-17,-330,-15,3955,28.94
-91,79,-17,-329,-5,3956,28.90
-83,77,-18,-329,0,3935,28.94
-84,71,-19,-321,-5,3942,28.97
-87,68,-19,-336,-4,3946,28.96
-92,81,-15,-343,-4,3953,28.94
-90,83,-13,-332,-14,3943,28.94
-88,77,-12,-328,-5,3964,28.96
-92,76,-10,-330,-6,3953,28.94
-89,79,-12,-329,-7,3939,28.94
-84,83,-14,-327,-5,3930,28.96
-86,78,-17,-328,-13,3937,28.96
-86,81,-16,-326,-13,3942,28.94
-81,83,-16,-337,-12,3948,28.95
-86,78,-16,-327,-11,3950,28.94
-82,72,-18,-327,-16,3936,28.95
-82,78,-14,-328,-11,3937,28.94
-84,78,-17,-323,-16,3938,28.94
-81,81,-17,-326,-12,3951,28.96
-86,82,-21,-334,-16,3955,28.95
-76,76,-14,-333,-16,3953,28.94
-79,77,-18,-334,-16,3949,28.96
-81,80,-16,-336,-4,3955,28.94
-85,77,-16,-337,-10,3958,28.93
-80,79,-14,-335,-19,3956,28.94
-84,79,-14,-336,-8,3945,28.94
-87,76,-17,-325,-10,3937,28.96
-83,72,-16,-324,-4,3950,28.95
-85,78,-17,-329,3,3957,28.95
-88,75,-17,-324,-4,3938,28.97
-86,75,-19,-323,-6,3943,28.98
-79,75,-20,-320,-10,3942,28.97
-80,78,-15,-322,-17,3927,28.97
-85,73,-16,-322,-13,3929,28.94
-83,78,-19,-327,-11,3934,28.95
-89,77,-15,-334,-4,3943,28.94
-87,78,-15,-339,-11,3939,28.96
-86,78,-13,-345,-7,3951,28.98
-87,76,-15,-336,-3,3960,28.96
-85,77,-10,-330,-1,3955,28.98
-86,74,-14,-329,0,3952,28.95
-87,77,-20,-320,5,3946,28.97
-85,78,-12,-323,-12,3941,28.97
-85,78,-14,-327,-5,3931,28.97
-84,81,-19,-325,-10,3939,28.96
-88,78,-17,-330,-4,3954,28.93
-82,79,-13,-319,2,3958,28.94
-86,80,-13,-324,-4,3952,28.96
-84,86,-16,-333,-14,3961,28.95
-81,78,-13,-321,-15,3954,28.96
-81,79,-10,-335,-18,3951,28.96
-81,84,-19,-335,-12,3942,28.98
-83,80,-13,-317,-7,3947,28.97
-80,78,-13,-324,-17,3957,28.97
-82,82,-13,-320,-15,3953,28.97
-82,82,-16,-327,-1,3944,28.98
-83,76,-18,-322,-5,3925,28.97
-80,75,-16,-324,-10,3940,28.98
-81,75,-17,-314,-7,3931,28.97
-85,79,-11,-314,-15,3949,28.99
-79,80,-17,-315,-2,3968,28.97
-82,82,-14,-315,-10,3955,28.94
-83,74,-17,-328,-14,3922,28.95
-84,78,-14,-331,-15,3945,28.97
-85,73,-11,-333,-7,3952,28.95
-83,75,-15,-322,-18,3951,28.99
-79,74,-16,-324,-12,3931,28.98
-78,73,-19,-338,-1,3955,28.97
-87,77,-15,-327,-2,3957,28.97
-89,80,-11,-330,-7,3942,28.97
-90,77,-14,-325,-10,3940,28.96
-85,74,-17,-327,-9,3948,28.97
-86,78,-22,-336,-3,3944,28.98
-81,74,-15,-329,-3,3932,28.97
-81,81,-20,-326,-10,3950,28.97
-81,83,-16,-320,-11,3944,28.99
-84,82,-15,-324,-14,3930,28.98
-85,80,-10,-315,-22,3951,28.97
-82,84,-15,-321,-6,3942,28.97
-84,77,-12,-333,-3,3956,28.97
-88,74,-12,-326,-5,3950,28.99
-83,77,-15,-325,-8,3946,28.98
-85,82,-13,-337,-9,3951,28.99
-86,78,-18,-327,-8,3955,28.99
-82,80,-18,-325,-13,3954,28.99
-85,74,-18,-330,-14,3939,28.99
-85,74,-14,-326,-15,3922,28.98
-85,76,-12,-326,-15,3941,28.99
-87,81,-12,-321,-7,3941,28.97
-85,75,-16,-328,-8,3935,28.95
-82,77,-19,-332,-9,3945,28.98
-85,75,-18,-336,-6,3955,28.94
-86,81,-20,-333,-17,3952,28.96
-88,77,-17,-328,-10,3940,28.97
-86,77,-13,-328,4,3954,28.97
-84,78,-15,-339,-9,3966,28.99
-86,82,-17,-331,-8,3949,29.01
-85,82,-16,-324,-9,3937,28.99
-85,79,-11,-325,-7,3934,28.98
-85,78,-14,-332,-5,3946,28.97
-82,78,-16,-326,4,3947,28.96
-85,83,-13,-335,-3,3948,28.97
-83,76,-12,-343,-1,3950,28.97
-82,74,-13,-341,-8,3953,28.98
-88,79,-16,-339,-11,3953,28.97
-86,84,-17,-336,-5,3953,28.96
-86,77,-17,-331,-13,3944,28.95
-87,72,-15,-323,-7,3943,28.97
-82,84,-15,-330,-7,3939,28.96
-81,86,-20,-335,-7,3937,28.98
-81,81,-13,-333,4,3945,28.98
-86,82,-16,-338,-3,3932,29.00
-88,77,-18,-323,0,3934,28.98
-82,81,-11,-334,-7,3945,28.98
-85,77,-18,-325,-9,3946,28.97
-87,73,-14,-320,-13,3950,28.96
-81,80,-13,-333,-15,3948,28.97
-84,78,-11,-335,-10,3938,28.98
-86,78,-15,-326,-14,3947,28.97
-84,86,-15,-338,-2,3948,28.97
-89,82,-17,-333,-7,3939,28.95
-90,81,-15,-336,-9,3945,28.97
-86,87,-17,-339,-10,3952,28.95
-88,85,-16,-330,-2,3961,28.97
-85,82,-19,-328,-11,3950,28.97
-88,78,-14,-330,-10,3952,28.96
-90,82,-13,-329,-17,3931,28.98
-89,82,-11,-323,-8,3920,28.96
-90,79,-12,-319,-3,3941,28.96
-84,81,-14,-315,0,3937,28.95
-87,80,-12,-329,2,3955,28.96
-81,78,-15,-322,-5,3962,28.97
-80,85,-17,-329,-14,3960,28.98
-81,75,-12,-330,-15,3957,28.97
-81,73,-15,-331,-16,3944,28.97
-84,74,-14,-320,-9,3943,28.96
-83,84,-16,-335,-10,3931,28.98
-86,80,-13,-337,-14,3938,28.98
-87,77,-17,-330,-32,3950,28.97
-86,81,-15,-324,-20,3947,28.96
-92,79,-7,-334,-13,3946,28.97
-90,83,-15,-332,-6,3943,28.98
-85,82,-15,-321,-11,3937,28.98
-85,77,-13,-325,-8,3936,28.97
-79,74,-15,-320,-14,3938,28.97
-82,78,-14,-331,-13,3946,28.97
-82,74,-12,-329,-7,3952,28.97
-88,79,-12,-325,-12,3948,28.98
-82,80,-13,-328,-7,3941,28.99
-83,81,-17,-323,-5,3946,28.98
-85,83,-18,-317,-3,3949,28.97
-83,76,-19,-322,-10,3942,28.97
-78,72,-17,-319,-16,3952,28.97
-79,79,-18,-325,-14,3943,28.98
-84,82,-18,-320,-3,3937,29.01
-83,84,-19,-328,-6,3942,28.98
-84,80,-16,-330,-14,3922,28.99
-88,79,-13,-328,-13,3934,28.99
-80,77,-13,-326,-17,3951,28.97
-81,80,-13,-327,-9,3939,28.97
-90,78,-19,-328,-20,3932,28.97
-82,80,-12,-332,-18,3939,29.00
-82,80,-13,-330,-20,3938,28.98
-88,82,-13,-326,-25,3934,28.99
-88,79,-12,-319,-9,3946,28.98
-86,76,-15,-310,-7,3946,28.98
-86,75,-17,-327,-15,3936,28.96
-84,73,-18,-312,-14,3935,28.97
-85,77,-12,-321,-15,3931,28.99
-84,79,-17,-315,-18,3940,28.98
-86,82,-14,-319,-4,3942,28.99
-84,82,-16,-332,-2,3946,28.99
-87,76,-16,-330,-6,3941,28.97
-85,82,-14,-338,-8,3943,28.97
-79,88,-17,-326,-5,3953,28.98
-80,78,-18,-335,-2,3947,29.00
-83,80,-16,-334,-4,3950,28.99
-84,80,-14,-340,-15,3965,28.98
-82,82,-14,-322,-7,3941,28.99
-83,84,-14,-330,-14,3939,28.98
-85,82,-15,-325,-14,3948,28.99
-85,84,-16,-339,-8,3955,29.00
-82,76,-14,-325,-8,3954,28.98
-89,79,-18,-314,-17,3948,28.99
-88,80,-17,-324,-13,3959,28.98
-85,87,-16,-321,-13,3950,28.97
-90,77,-14,-322,-7,3944,28.97
-86,75,-14,-314,1,3954,28.97
-88,76,-16,-316,-3,3938,28.97
-91,75,-20,-326,1,3956,28.97
-86,77,-19,-331,-7,3949,28.98
-87,79,-16,-330,-13,3956,28.99
-83,78,-16,-327,-17,3957,28.97
-82,82,-15,-320,-16,3959,28.97
-83,80,-15,-322,-24,3957,28.99
-82,80,-14,-331,-19,3937,28.99
-85,77,-19,-329,-19,3942,28.99
-87,78,-13,-327,-12,3929,28.98
-87,78,-12,-330,-5,3943,28.99
-88,74,-12,-318,-7,3933,28.99
-91,75,-15,-322,-10,3942,28.98
-85,80,-17,-326,-12,3944,28.99
-87,77,-15,-327,-10,3940,28.99
-89,77,-18,-339,-18,3950,29.00
-81,81,-16,-333,-10,3955,29.00
-82,76,-17,-338,-1,3949,29.01
-86,79,-15,-337,-18,3948,28.99
-83,80,-16,-327,-6,3939,28.98
-84,80,-14,-333,-12,3931,28.97
-86,74,-13,-324,-16,3937,28.96
-83,71,-18,-325,-6,3948,28.97
-83,83,-15,-328,-6,3943,29.00
-80,76,-13,-326,-7,3945,29.01
-90,76,-15,-334,-15,3954,29.00
-86,77,-10,-330,-12,3938,28.99
-87,72,-16,-322,-1,3956,28.99
-86,78,-17,-323,-7,3943,28.98
-87,82,-17,-331,-10,3938,28.98
-93,77,-15,-326,-8,3937,28.99
-94,77,-15,-329,-12,3939,28.97
-91,76,-18,-326,-6,3931,28.97
-80,81,-12,-340,-14,3938,28.97
-85,82,-11,-325,-13,3943,28.99
-87,79,-14,-334,-9,3928,28.99
-85,82,-17,-332,-19,3942,28.99
-80,86,-14,-320,-13,3951,28.97
-81,87,-9,-323,-24,3935,28.97
-78,82,-15,-325,-20,3937,28.97
-85,79,-17,-321,-10,3948,28.98
-84,81,-16,-324,-10,3944,28.98
-86,77,-13,-319,-6,3941,28.97
-82,78,-11,-327,-9,3950,28.98
-80,83,-19,-325,-9,3945,29.01
-79,86,-16,-340,-9,3933,29.00
-82,81,-11,-327,-11,3936,28.98
-84,84,-13,-326,-5,3949,28.98
-80,77,-11,-326,-13,3972,29.00
-82,83,-15,-325,-7,3947,29.00
-80,82,-15,-324,-5,3939,28.99
-85,72,-16,-320,-9,3943,29.00
-85,74,-14,-325,-12,3938,29.02
-89,78,-12,-325,-5,3944,28.99
-85,83,-17,-326,-11,3952,28.99
-80,83,-12,-323,-13,3954,29.01
-83,88,-18,-320,-9,3951,28.99
-84,87,-19,-314,-5,3953,29.01
-85,82,-10,-337,-8,3961,29.00
-85,81,-11,-339,-10,3958,28.98
-89,78,-17,-343,-8,3940,29.00
-85,78,-21,-332,-2,3937,29.01
-83,71,-16,-329,-9,3940,28.97
-87,74,-13,-337,-15,3936,28.99
-83,72,-13,-330,-14,3948,28.98
-84,74,-18,-325,-14,3955,28.99
-85,79,-13,-320,-11,3956,29.03
-81,78,-13,-335,-9,3947,29.02
-81,81,-12,-330,-5,3929,29.02
-84,84,-14,-337,-7,3940,28.99
-82,78,-17,-324,-12,3940,29.00
-90,79,-20,-325,-2,3941,29.01
-90,81,-15,-335,-6,3937,29.02
-87,77,-16,-330,-6,3938,29.01
-88,82,-14,-336,-7,3958,29.00
-87,76,-14,-315,-8,3952,29.00
-83,77,-17,-330,-1,3949,29.02
-82,79,-16,-334,-6,3925,29.02
-83,86,-13,-324,-22,3941,28.99
-84,81,-12,-321,-13,3938,29.02
-87,80,-14,-332,-8,3932,29.00
-85,83,-15,-327,-16,3937,28.99
-87,81,-15,-316,-13,3939,28.99
-87,77,-14,-324,-24,3935,28.98
-85,78,-12,-332,-13,3964,28.98
-88,80,-16,-328,-19,3962,29.00
-88,81,-16,-331,-14,3963,29.00
-86,76,-14,-331,-12,3944,29.00
-88,72,-16,-315,-16,3946,29.00
-85,72,-14,-321,-3,3946,28.99
-85,77,-14,-326,3,3951,29.01
-87,81,-18,-327,-13,3938,29.00
-90,84,-19,-316,-11,3951,28.99
-82,80,-19,-332,1,3946,29.01
-83,84,-21,-335,-2,3929,28.99
-82,84,-16,-329,-8,3941,28.97
-85,80,-16,-333,-5,3947,28.99
-84,79,-16,-327,-2,3940,29.01
-84,80,-21,-328,-16,3954,29.01
-89,75,-18,-324,-10,3947,28.99
-85,82,-20,-322,-13,3938,28.99
-82,78,-22,-331,-5,3926,29.02
-91,81,-18,-325,-9,3924,29.02
-87,78,-13,-328,-8,3939,29.01
-90,76,-18,-328,-4,3953,29.01
-91,77,-18,-328,-5,3943,28.99
-92,78,-19,-331,-14,3949,29.01
-89,79,-17,-323,-7,3969,29.01
-89,80,-13,-324,2,3942,28.98
-83,80,-16,-331,-3,3954,29.00
-84,79,-13,-332,-5,3949,29.02
-85,81,-15,-323,-8,3955,29.00
-86,81,-17,-326,-5,3937,29.01
-91,83,-13,-323,-13,3943,28.99
-86,81,-13,-326,-13,3962,29.01
-83,81,-15,-326,-8,3953,28.99
-82,85,-13,-329,-13,3950,28.99
-82,77,-12,-338,-10,3938,29.02
-84,81,-17,-329,-17,3945,29.00
-83,78,-19,-324,-4,3940,28.99
-87,75,-16,-332,-17,3961,28.98
-82,74,-14,-335,-17,3962,29.00
-84,75,-15,-325,-10,3946,29.00
-82,78,-20,-325,-11,3943,29.01
-90,77,-21,-321,-12,3943,29.02
-84,72,-17,-324,1,3928,29.03
-85,79,-17,-327,1,3922,29.01
-83,73,-12,-331,-3,3929,28.99
-84,78,-17,-327,3,3939,29.01
-82,74,-12,-325,-8,3950,29.01
-80,79,-12,-323,-16,3932,28.99
-85,76,-14,-329,-9,3940,29.01
-84,77,-15,-319,-11,3948,29.01
-83,80,-18,-327,-20,3941,29.01
-86,81,-22,-319,-18,3942,29.03
-86,79,-16,-326,-23,3938,29.02
-82,76,-14,-327,-24,3944,29.01
-86,80,-15,-333,-14,3936,29.00
-90,78,-13,-335,-9,3941,29.02
-86,81,-16,-335,-15,3957,29.01
-86,83,-18,-332,-15,3958,29.01
-89,79,-16,-332,-8,3945,29.02
-89,81,-19,-333,-9,3934,28.99
-83,80,-16,-330,-2,3944,28.99
-78,78,-13,-337,-13,3950,29.00
-81,77,-16,-327,-7,3937,28.99
-84,83,-20,-326,-1,3958,29.00
-83,76,-19,-313,-13,3942,29.00
-86,78,-15,-321,-12,3938,28.99
-86,75,-14,-325,2,3945,29.00
-90,82,-17,-329,-2,3927,29.03
-88,77,-19,-326,-7,3940,29.02
-87,79,-16,-332,-12,3933,29.02
-84,84,-10,-340,-2,3936,29.02
-87,77,-13,-340,-3,3934,29.00
-92,76,-16,-336,-2,3928,28.98
-88,82,-15,-325,-11,3938,28.98
-86,80,-16,-325,-12,3946,28.97
-88,83,-15,-337,-21,3954,29.01
-89,74,-18,-328,-16,3937,28.99
-82,80,-19,-328,-11,3948,29.00
-87,77,-15,-329,-5,3954,28.99
-86,84,-12,-331,-3,3962,29.00
-87,80,-15,-323,-7,3956,29.03
-86,83,-17,-328,-6,3934,29.02
-92,84,-17,-332,-16,3950,29.02
-84,79,-17,-328,-16,3944,29.02
-87,82,-14,-327,-6,3950,28.99
-83,86,-15,-333,-9,3952,29.00
-85,85,-14,-335,-24,3933,29.02
-86,81,-21,-338,-14,3942,29.03
-85,78,-19,-337,-3,3941,28.99
-82,78,-17,-321,-2,3939,29.01
-82,78,-13,-321,-11,3936,29.01
-89,83,-11,-331,-8,3948,29.01
-86,80,-14,-336,-5,3952,28.97
-80,75,-14,-335,2,3937,29.02
-81,73,-15,-335,5,3942,29.03
-80,72,-17,-338,-1,3932,29.00
-82,79,-17,-335,-12,3947,28.98
-85,79,-14,-338,-8,3952,28.99
-81,78,-12,-323,-5,3949,28.99
-84,81,-14,-331,-5,3926,29.00
-86,82,-18,-330,-17,3935,29.02
-86,78,-17,-329,-3,3944,29.01
-84,80,-16,-326,3,3945,29.02
-79,77,-17,-320,-6,3943,29.01
-84,72,-20,-325,-5,3946,28.99
-90,73,-13,-326,-11,3931,29.03
-85,75,-5,-321,-15,3940,29.03
-85,78,-9,-327,-4,3937,29.02
-88,82,-11,-342,8,3941,29.00
-89,81,-20,-335,1,3933,29.01
-88,79,-19,-337,-1,3944,28.99
-85,81,-18,-340,6,3951,29.01
-87,78,-22,-337,2,3943,29.01
-84,81,-22,-337,-1,3943,29.00
-88,79,-18,-331,-7,3954,29.00
-88,81,-14,-327,-10,3952,29.01
-88,75,-15,-325,-7,3940,29.01
-89,74,-16,-325,-6,3923,29.00
-84,71,-15,-325,-11,3929,29.00
-85,74,-10,-328,-19,3931,28.99
-86,74,-20,-322,-21,3935,29.01
-83,75,-18,-325,-17,3942,29.02
-87,72,-16,-329,-11,3937,29.02
-86,78,-13,-322,-8,3936,29.00
-84,82,-15,-324,-15,3945,28.99
-90,75,-17,-332,-12,3941,29.02
-83,76,-14,-330,-14,3932,29.00
-89,74,-13,-329,-16,3931,28.99
-85,76,-14,-324,0,3950,29.02
-87,75,-17,-324,-9,3944,29.03
-88,77,-13,-334,-20,3938,29.04
-85,79,-18,-328,-7,3928,29.01
-82,76,-18,-324,-6,3934,29.02
-83,77,-18,-324,-10,3938,29.00
-85,79,-16,-324,-17,3932,29.02
-82,83,-19,-322,-8,3942,29.02
-84,78,-18,-331,-10,3940,29.01
-84,79,-13,-330,-16,3934,29.02
-82,83,-12,-326,-10,3931,29.02
-80,84,-10,-319,-9,3930,29.01
-90,76,-13,-322,-14,3951,29.01
-84,81,-17,-324,-12,3947,29.02
-85,76,-18,-325,-14,3953,29.03
-89,78,-19,-328,-15,3931,29.02
-82,72,-13,-328,-17,3938,29.02
-85,76,-17,-329,-8,3927,29.04
-85,78,-13,-318,-7,3943,29.03
-87,78,-13,-328,-3,3943,29.03
-89,73,-13,-333,-12,3935,29.02
-90,73,-17,-328,-17,3943,29.02
-88,77,-12,-325,-9,3940,29.02
-87,81,-17,-338,-19,3936,29.04
-80,78,-14,-326,-20,3941,29.04
-85,73,-16,-321,-6,3954,29.02
-85,74,-14,-318,-1,3935,29.01
-85,85,-15,-323,-4,3944,29.02
-85,82,-18,-319,-6,3956,29.02
-87,80,-11,-324,-8,3953,29.02
-85,78,-15,-326,-3,3938,29.00
-80,77,-13,-329,-2,3951,29.00
-85,72,-13,-333,-9,3926,29.01
-87,73,-14,-336,-14,3936,28.99
-89,76,-13,-332,-3,3939,29.02
-87,77,-15,-333,-6,3967,29.02
-88,85,-14,-323,-15,3942,29.05
-86,79,-13,-325,-1,3935,29.01
-86,80,-14,-327,-3,3926,29.01
-85,77,-14,-323,-7,3929,29.02
-87,81,-15,-335,-14,3934,29.01
-81,73,-19,-334,-2,3936,29.00
-81,79,-18,-337,-13,3940,29.00
-80,83,-14,-338,-10,3942,29.00
-85,81,-21,-338,-16,3923,29.00
-83,76,-16,-332,-16,3934,29.01
-81,76,-17,-329,-19,3929,29.02
-78,78,-17,-327,-21,3941,29.00
-85,79,-15,-333,-7,3946,29.00
-81,73,-17,-334,2,3927,29.02
-85,76,-17,-333,-9,3938,29.03
-86,84,-12,-336,-8,3933,29.02
-86,80,-12,-330,-22,3928,29.03
-85,78,-12,-324,-11,3929,29.05
-90,76,-19,-326,-6,3929,29.05
-86,71,-22,-326,-5,3954,29.02
-82,77,-19,-338,-9,3952,29.00
-81,77,-14,-328,-4,3938,29.02
-81,82,-20,-325,1,3945,29.01
-77,82,-15,-331,-14,3939,29.01
-78,82,-16,-333,-11,3952,29.02
-81,83,-12,-326,-8,3957,29.05
-85,82,-11,-322,1,3953,29.03
-82,81,-12,-329,-7,3936,29.02
-84,73,-12,-334,-14,3957,29.04
-82,77,-14,-326,-17,3962,29.04
-79,78,-14,-329,-13,3952,29.03
-84,78,-15,-334,-6,3939,29.02
-82,78,-17,-335,-13,3959,29.03
-83,85,-15,-328,-8,3966,29.05
-82,77,-18,-317,1,3974,29.02
-87,76,-15,-317,-12,3947,29.02
-87,81,-12,-322,-12,3951,29.02
-85,78,-15,-320,-8,3938,29.03
-84,78,-17,-319,-11,3954,29.01
-86,82,-19,-321,-7,3955,28.98
-82,80,-17,-316,-13,3939,28.99
-86,77,-12,-323,-12,3947,29.02
-84,79,-14,-326,-8,3940,29.02
-82,78,-11,-334,-7,3937,29.03
-86,78,-12,-329,-23,3936,29.02
-83,82,-9,-325,-17,3942,29.02
-84,77,-14,-323,-10,3939,29.02
-80,74,-16,-325,-11,3950,29.01
-80,82,-16,-327,-14,3944,29.02
-84,74,-16,-331,-7,3935,29.01
-88,74,-16,-331,0,3934,29.03
-83,73,-15,-330,9,3939,29.04
-88,79,-17,-330,3,3938,29.03
-92,78,-17,-324,-5,3949,29.04
-86,78,-19,-320,-5,3953,29.03
-88,79,-18,-329,-5,3937,29.01
-82,80,-13,-323,-2,3963,29.04
-78,79,-13,-320,-14,3954,29.03
-82,78,-14,-329,-15,3949,29.05
-87,78,-15,-334,-30,3945,29.04
-84,80,-16,-332,-14,3943,29.03
-86,81,-15,-325,-9,3948,29.03
-83,80,-16,-339,-7,3945,29.04
-90,79,-14,-333,1,3948,29.04
-86,76,-14,-326,-2,3952,29.03
-85,79,-14,-322,-7,3947,29.03
-83,78,-13,-324,-8,3960,29.05
-88,74,-18,-325,-8,3955,29.04
-88,80,-16,-323,-11,3950,29.04
-86,83,-14,-322,-12,3950,29.05
-83,77,-18,-326,-13,3939,29.06
-82,76,-14,-333,-4,3944,29.07
-86,80,-19,-323,-8,3929,29.07
-87,75,-15,-324,-13,3923,29.06
-81,81,-15,-334,-7,3932,29.03
-87,84,-18,-327,-15,3948,29.04
-83,79,-21,-333,-12,3949,29.02
-80,84,-16,-332,-10,3949,29.01
-86,76,-16,-329,-13,3937,29.03
-93,71,-19,-328,-9,3935,29.04
-91,77,-16,-322,-9,3940,29.02
-80,79,-16,-326,-11,3947,29.04
-81,80,-11,-327,-7,3953,29.04
-81,81,-14,-321,-9,3933,29.04
-82,83,-13,-321,-14,3946,29.04
-88,86,-15,-328,-13,3945,29.01
-85,80,-12,-319,-7,3945,29.01
-86,85,-15,-331,-5,3932,29.04
-85,81,-15,-329,-5,3943,29.02
-84,72,-17,-336,-8,3956,29.00
-89,70,-18,-329,-3,3952,29.03
-87,78,-15,-326,-14,3941,29.02
-87,78,-10,-334,-13,3945,29.02
-85,77,-14,-342,-15,3964,29.04
-93,83,-18,-324,-15,3951,29.04
-86,81,-18,-329,-15,3954,29.02
-83,77,-19,-323,-10,3937,29.03
-83,80,-19,-320,-8,3954,29.02
-83,81,-17,-323,-8,3931,29.02
-78,79,-18,-331,-17,3957,29.03
-85,77,-17,-313,-13,3941,29.03
-83,84,-21,-317,-9,3946,29.03
-84,83,-20,-318,-5,3939,29.02
-82,77,-15,-329,-9,3942,29.03
-88,76,-14,-329,-2,3947,29.00
-87,79,-19,-332,-7,3940,29.01
-85,77,-15,-341,-18,3946,29.04
-88,74,-18,-340,-13,3932,29.05
-86,75,-13,-327,-4,3934,29.05
-88,82,-16,-330,-10,3946,29.02
-81,81,-16,-323,-10,3950,29.04
-87,80,-15,-323,-5,3953,29.04
-84,77,-14,-337,0,3962,29.03
-87,79,-17,-328,-3,3942,29.03
-85,78,-12,-327,-13,3939,29.05
-83,71,-13,-334,-8,3941,29.05
-84,76,-15,-329,3,3959,29.02
-86,82,-12,-319,-12,3946,29.03
-87,85,-16,-325,-8,3957,29.05
-89,80,-17,-330,-8,3942,29.04
-88,79,-16,-334,-8,3947,29.06
-90,82,-18,-324,-6,3951,29.03
-85,87,-14,-328,-3,3947,29.05
-87,83,-20,-329,-11,3946,29.06
-83,82,-17,-328,-11,3948,29.03
-83,82,-21,-318,-13,3936,29.05
-87,76,-18,-315,-14,3924,29.05
-80,77,-17,-326,-7,3953,29.05
-86,78,-14,-338,-23,3966,29.06
-84,76,-15,-341,-15,3953,29.04
-84,76,-13,-336,-9,3943,29.06
-84,77,-10,-342,-20,3948,29.03
-81,75,-11,-334,-7,3951,29.04
-84,77,-18,-324,-4,3947,29.04
-87,74,-15,-332,-8,3942,29.03
-86,80,-14,-325,-3,3944,29.02
-82,77,-15,-325,-3,3943,29.06
-81,78,-16,-323,1,3944,29.03
-84,77,-18,-328,-5,3949,29.02
-91,72,-12,-338,5,3956,29.02
-88,84,-16,-334,9,3959,29.06
-84,82,-12,-340,-5,3954,29.04
-87,78,-16,-332,-10,3941,29.04
-88,79,-14,-334,-16,3953,29.05
-87,82,-17,-323,-6,3939,29.02
-84,86,-19,-322,-11,3950,29.03
-84,78,-18,-328,-11,3958,29.04
-85,80,-14,-327,-9,3950,29.03
-87,76,-14,-339,-13,3946,29.05
-87,75,-14,-337,-13,3944,29.04
-88,76,-16,-338,-5,3929,29.04
-82,85,-15,-341,-4,3953,29.04
-81,82,-16,-332,-11,3961,29.04
-83,83,-14,-331,-20,3969,29.04
-80,77,-9,-322,-17,3947,29.04
-83,75,-15,-321,-11,3943,29.04
-86,76,-13,-321,-6,3947,29.03
-87,79,-9,-335,-6,3935,29.03
-87,78,-15,-325,-11,3934,29.05
-83,77,-19,-323,-8,3940,29.04
-86,81,-20,-333,-11,3928,29.04
-87,77,-13,-326,-8,3942,29.03
-89,76,-13,-324,-6,3958,29.04
-81,74,-18,-331,-1,3953,29.04
-85,78,-17,-336,-10,3945,29.04
-86,75,-15,-331,-15,3951,29.03
-83,71,-17,-327,-13,3948,29.05
-85,67,-23,-331,-5,3945,29.05
-84,75,-16,-338,-5,3948,29.04
-89,78,-15,-332,4,3952,29.05
-87,78,-15,-329,-7,3947,29.06
-83,79,-12,-326,-6,3948,29.05
-86,81,-15,-335,-8,3932,29.07
-78,76,-18,-320,-15,3918,29.04
-84,81,-14,-329,-20,3937,29.03
-84,78,-18,-317,-10,3930,29.02
-87,81,-17,-318,-8,3931,29.03
-91,82,-15,-326,-20,3952,29.02
-87,83,-19,-328,-16,3947,29.03
-86,78,-18,-321,-12,3940,29.04
-84,83,-14,-327,-15,3950,29.03
-85,78,-19,-331,-16,3964,29.05
-84,74,-16,-332,-12,3942,29.06
-81,80,-18,-317,-10,3942,29.04
-85,78,-17,-330,-4,3933,29.03
-88,78,-14,-341,-6,3918,29.06
-85,76,-11,-337,-7,3927,29.05
-85,82,-15,-325,-7,3945,29.06
-85,87,-20,-317,-15,3940,29.05
-90,83,-17,-322,-12,3943,29.03
-88,77,-12,-330,-4,3944,29.04
-88,76,-15,-333,0,3947,29.06
-85,72,-9,-334,-6,3943,29.03
-84,72,-11,-320,-10,3932,29.04
-84,76,-14,-333,-12,3936,29.05
-86,77,-11,-324,-12,3948,29.05
-87,78,-15,-323,-12,3929,29.04
-84,76,-15,-325,-3,3920,29.05
-83,80,-19,-331,-2,3945,29.05
-88,79,-17,-339,-14,3951,29.08
-88,77,-21,-340,5,3935,29.06
-88,79,-19,-331,7,3934,29.05
-88,78,-17,-326,-4,3937,29.04
-84,76,-20,-326,-9,3959,29.04
-88,79,-14,-319,-10,3951,29.04
-83,78,-16,-327,-6,3942,29.02
-83,77,-17,-317,-12,3939,29.02
-79,76,-15,-326,-8,3934,29.03
-83,79,-18,-330,4,3944,29.04
-84,74,-12,-325,-3,3953,29.03
-86,74,-18,-322,-5,3948,29.06
-85,73,-13,-327,-8,3940,29.07
-81,76,-14,-322,-7,3936,29.07
-85,78,-18,-336,-9,3928,29.07
-89,72,-18,-342,-5,3936,29.07
-87,76,-17,-332,-6,3945,29.06
-84,78,-15,-326,1,3934,29.06
-88,80,-17,-322,4,3939,29.05
-85,72,-19,-325,2,3948,29.04
-86,78,-15,-320,0,3960,29.05
-86,79,-16,-321,-2,3967,29.05
-85,78,-22,-321,-9,3963,29.05
-87,73,-18,-324,-2,3956,29.05
-86,76,-16,-326,-8,3936,29.05
-90,72,-19,-334,-15,3945,29.04
-84,78,-16,-329,-7,3942,29.07
-85,84,-12,-320,-12,3948,29.08
-86,80,-13,-336,-6,3934,29.07
-82,74,-11,-329,-14,3939,29.07
-80,82,-14,-331,-13,3947,29.06
-84,74,-15,-329,-11,3950,29.06
-88,77,-16,-319,-6,3952,29.06
-88,75,-13,-320,-9,3942,29.05
-80,71,-12,-322,-10,3952,29.04
-82,78,-12,-331,-16,3961,29.02
-82,82,-14,-329,-14,3949,29.07
-80,78,-13,-324,-15,3936,29.08
-85,79,-19,-333,-15,3936,29.05
-85,78,-14,-333,-6,3951,29.05
-86,83,-14,-328,-3,3943,29.05
-81,83,-15,-323,-21,3949,29.05
-83,75,-17,-322,-18,3951,29.05
-82,73,-19,-328,-18,3945,29.05
-81,77,-15,-326,-10,3944,29.05
-86,81,-22,-326,-6,3938,29.05
-81,78,-15,-331,0,3936,29.06
-84,79,-16,-340,-4,3926,29.07
-83,78,-16,-321,-6,3938,29.07
-84,84,-14,-320,-5,3934,29.05
-83,82,-16,-324,-8,3932,29.04
-84,77,-13,-313,1,3945,29.02
-87,76,-10,-312,-7,3939,29.04
-86,81,-12,-325,-14,3948,29.04
-85,76,-14,-326,-16,3937,29.06
-82,77,-16,-339,-16,3928,29.05
-88,80,-15,-331,-16,3930,29.05
-87,79,-18,-325,-18,3928,29.02
-82,82,-15,-328,-10,3941,29.06
-84,81,-17,-321,-5,3945,29.05
-87,78,-15,-324,-8,3922,29.05
-87,78,-16,-329,-12,3937,29.04
-87,85,-14,-337,-14,3943,29.05
-87,80,-13,-341,-11,3944,29.06
-86,75,-11,-341,-9,3946,29.04
-88,71,-13,-331,-9,3938,29.04
-81,76,-15,-331,-10,3935,29.06
-84,78,-13,-319,-8,3938,29.05
-87,82,-20,-325,-7,3933,29.05
-86,80,-18,-333,-11,3952,29.05
-82,74,-15,-325,-6,3954,29.05
-82,76,-16,-330,1,3945,29.04
-85,79,-18,-335,-6,3945,29.07
-83,80,-17,-330,-3,3948,29.06
-80,81,-16,-340,-8,3952,29.06
-86,81,-18,-338,-8,3953,29.05
-85,84,-19,-336,-4,3941,29.04
-88,77,-14,-332,-8,3940,29.05
-87,75,-10,-330,-2,3943,29.04
-87,74,-17,-324,-8,3942,29.05
-85,77,-13,-323,-8,3921,29.06
-84,74,-14,-318,1,3940,29.05
-78,82,-15,-323,-2,3934,29.04
-77,75,-13,-328,-4,3938,29.04
-82,76,-17,-323,-4,3936,29.07
-82,78,-15,-333,-3,3936,29.07
-83,77,-14,-328,0,3944,29.07
-82,77,-10,-328,-12,3946,29.07
-83,77,-11,-325,-13,3952,29.05
-81,71,-15,-327,-14,3953,29.07
-88,75,-15,-333,-16,3943,29.05
-84,78,-16,-324,-11,3939,29.06
-85,75,-15,-326,-11,3942,29.04
-86,77,-13,-320,-10,3945,29.06
-82,78,-14,-325,-17,3944,29.07
-83,78,-15,-317,-10,3956,29.09
-83,81,-18,-319,-13,3954,29.06
-87,79,-12,-321,-15,3952,29.07
-86,79,-16,-327,-13,3957,29.06
-83,77,-18,-329,-7,3938,29.07
-84,80,-14,-323,-13,3948,29.05
-83,77,-15,-319,-4,3942,29.06
-85,76,-15,-312,0,3939,29.05
-84,82,-16,-320,-11,3950,29.06
-88,75,-16,-323,-15,3946,29.06
-88,78,-19,-326,-9,3941,29.05
-84,73,-15,-336,-10,3938,29.06
-84,79,-19,-335,-1,3945,29.05
-82,78,-16,-328,-11,3941,29.06
-84,80,-16,-319,-3,3932,29.06
-82,75,-18,-325,-2,3940,29.04
-83,79,-10,-333,1,3944,29.06
-88,81,-11,-343,-7,3937,29.07
-83,83,-17,-330,-6,3944,29.07
-84,76,-19,-324,-8,3938,29.07
-83,76,-17,-326,-11,3956,29.07
-83,80,-20,-329,-7,3960,29.05
-81,73,-17,-324,3,3962,29.06
-76,76,-14,-323,-1,3960,29.06
-83,79,-15,-324,-1,3951,29.08
-88,73,-20,-326,-14,3939,29.06
-84,78,-22,-328,-1,3949,29.05
-81,78,-19,-337,-11,3942,29.06
-87,84,-17,-333,-22,3950,29.06
-87,83,-14,-325,-22,3947,29.07
-88,83,-17,-321,-14,3954,29.06
-83,77,-15,-330,-12,3962,29.06
-82,74,-12,-329,-25,3939,29.06
-83,83,-12,-336,-17,3934,29.06
-82,80,-13,-332,-12,3941,29.06
-77,78,-15,-333,-17,3952,29.03
-86,74,-15,-332,-7,3939,29.03
-89,78,-16,-326,-17,3942,29.04
-87,76,-16,-329,-15,3930,29.05
-85,82,-13,-327,-7,3949,29.07
-87,81,-12,-326,-1,3940,29.06
-86,78,-16,-325,-3,3934,29.06
-86,77,-17,-333,-6,3941,29.05
-79,81,-17,-325,-1,3959,29.07
-86,77,-18,-321,-2,3957,29.07
-81,86,-16,-328,-7,3940,29.07
-83,87,-19,-326,-2,3930,29.06
-77,82,-22,-330,-5,3941,29.09
-82,82,-16,-328,-14,3944,29.09
-85,82,-12,-326,-7,3938,29.08
-80,84,-14,-325,-7,3931,29.07
-81,76,-13,-330,-5,3951,29.05
-86,76,-16,-333,-2,3949,29.04
-85,76,-18,-328,-5,3940,29.06
-89,77,-14,-325,-11,3956,29.05
-85,80,-15,-322,-6,3957,29.06
-85,78,-13,-332,-4,3947,29.05
-90,75,-11,-331,-5,3945,29.04
-88,81,-12,-331,-8,3937,29.07
-81,76,-14,-332,-8,3929,29.06
-83,81,-16,-338,-10,3937,29.05
-83,78,-12,-333,-11,3934,29.07
-83,74,-12,-325,-12,3934,29.06
-81,80,-20,-328,-6,3931,29.07
-82,76,-20,-330,-19,3946,29.06
-76,78,-19,-338,-12,3925,29.05
-83,81,-13,-327,-11,3934,29.05
-83,78,-12,-333,-7,3934,29.07
-78,76,-14,-336,-14,3943,29.09
-77,80,-13,-332,-19,3956,29.06
-84,78,-18,-329,-6,3953,29.05
-85,81,-15,-322,-7,3933,29.06
-86,79,-14,-325,-10,3953,29.04
-82,73,-15,-317,-8,3948,29.07
-83,79,-11,-323,-8,3961,29.06
-89,79,-15,-320,-4,3951,29.06
-81,79,-16,-317,-6,3933,29.06
-86,78,-14,-325,-4,3933,29.07
-82,81,-14,-336,-20,3935,29.06
-80,85,-19,-331,-10,3948,29.06
-86,86,-16,-327,-7,3948,29.06
-84,82,-15,-326,-3,3950,29.07
-89,74,-15,-333,-10,3948,29.07
-89,81,-14,-338,4,3937,29.07
-88,79,-17,-333,-2,3937,29.07
-85,82,-16,-330,4,3943,29.07
-82,85,-19,-316,-2,3927,29.06
-82,81,-22,-322,-13,3925,29.05
-84,86,-18,-333,-2,3926,29.06
-77,82,-18,-325,-11,3940,29.06
-79,78,-16,-317,-13,3946,29.06
-81,78,-14,-316,-11,3939,29.08
-78,86,-14,-331,-8,3952,29.08
-78,78,-15,-329,-10,3938,29.10
-80,76,-14,-333,-4,3934,29.07
-81,70,-12,-322,-13,3932,29.07
-85,77,-12,-320,-8,3932,29.05
-87,87,-18,-322,-4,3956,29.06
-83,76,-14,-323,0,3947,29.05
-85,79,-18,-331,-9,3948,29.05
-84,80,-17,-319,-6,3938,29.06
-80,75,-11,-326,-2,3942,29.05
-85,76,-11,-326,-11,3926,29.04
-83,76,-10,-323,-6,3935,29.08
-84,78,-9,-330,-6,3947,29.07
-83,75,-14,-327,-12,3952,29.06
-86,75,-17,-327,-14,3949,29.05
-86,78,-15,-337,-6,3928,29.06
-87,72,-16,-326,-4,3939,29.07
-88,73,-15,-323,3,3941,29.05
-90,76,-14,-329,5,3947,29.06
-85,78,-19,-336,-1,3953,29.06
-84,75,-14,-324,-2,3951,29.06
-82,77,-16,-328,5,3936,29.06
-82,77,-15,-328,-9,3943,29.08
-87,75,-16,-333,-8,3946,29.07
-86,82,-12,-330,-10,3938,29.06
-87,79,-13,-334,-18,3944,29.08
-91,81,-16,-323,-5,3940,29.09
-86,78,-16,-334,-6,3954,29.09
-83,81,-16,-329,-15,3960,29.06
-80,81,-11,-327,-17,3962,29.07
-81,77,-16,-318,-4,3970,29.07
-81,79,-17,-328,-8,3951,29.07
-84,84,-16,-331,-7,3942,29.07
-80,86,-19,-327,-1,3945,29.09
-83,77,-19,-327,-2,3941,29.09
-85,83,-15,-330,-7,3932,29.07
-85,79,-13,-322,-8,3937,29.07
-86,81,-15,-323,-8,3966,29.09
-88,76,-18,-323,-8,3958,29.09
-82,81,-16,-324,-10,3954,29.09
-86,81,-16,-316,-12,3931,29.08
-82,81,-12,-327,-9,3934,29.07
-82,76,-12,-331,-7,3953,29.08
-81,79,-18,-327,-8,3946,29.07
-80,71,-20,-317,-9,3945,29.05
-84,68,-17,-323,-2,3943,29.05
-86,76,-18,-324,6,3946,29.07
-84,74,-14,-326,-10,3947,29.07
-82,75,-17,-333,-14,3948,29.07
-85,75,-6,-321,-10,3937,29.06
-84,82,-11,-328,-9,3932,29.07
-83,83,-19,-324,-2,3933,29.06
-86,84,-15,-324,-8,3935,29.04
-83,86,-14,-318,0,3940,29.06
-82,83,-18,-316,-12,3940,29.06
-82,80,-16,-320,-11,3932,29.08
-83,72,-16,-321,-15,3948,29.07
-87,79,-19,-322,-11,3947,29.06
-92,75,-17,-322,-18,3952,29.06
-88,81,-15,-339,-14,3946,29.07
-87,77,-14,-342,-9,3947,29.05
-91,80,-11,-354,-10,3961,29.05
-87,84,-13,-338,-19,3943,29.07
-82,80,-20,-337,-16,3952,29.07
-86,78,-18,-326,-13,3947,29.07
-80,79,-14,-324,-10,3945,29.07
-82,80,-14,-338,-12,3944,29.08
-81,77,-11,-338,-17,3944,29.08
-88,76,-14,-315,-14,3945,29.08
-89,78,-16,-332,1,3946,29.08
-87,84,-12,-340,-1,3960,29.09
-83,82,-14,-335,-10,3944,29.08
-82,80,-14,-331,-12,3942,29.08
-80,81,-17,-335,-10,3954,29.08
-82,80,-17,-327,-12,3941,29.07
-82,78,-18,-326,-4,3927,29.06
-84,81,-16,-330,-6,3940,29.07
-88,82,-16,-328,-8,3943,29.07
-86,81,-10,-331,-18,3948,29.09
-90,77,-18,-327,-18,3956,29.07
-89,78,-16,-331,-7,3937,29.08
-82,79,-21,-333,-4,3938,29.08
-82,78,-18,-334,-8,3956,29.08
-86,76,-18,-331,-6,3959,29.10
-89,79,-16,-331,-13,3945,29.09
-89,76,-14,-329,-10,3930,29.08
-84,81,-11,-330,-8,3919,29.06
-84,88,-12,-331,-17,3931,29.07
-82,85,-12,-341,-14,3947,29.07
-80,77,-15,-337,-6,3931,29.05
-79,78,-12,-342,0,3923,29.06
-85,76,-17,-342,-1,3938,29.07
-80,76,-18,-338,4,3951,29.07
-83,76,-17,-338,-5,3937,29.06
-81,70,-17,-327,-9,3939,29.07
-84,80,-17,-329,-8,3948,29.08
-86,82,-15,-318,1,3940,29.07
-83,82,-16,-320,-2,3940,29.05
-79,79,-18,-326,-6,3954,29.08
-85,79,-21,-337,-15,3965,29.07
-85,82,-19,-328,-10,3943,29.06
-88,75,-18,-335,-3,3947,29.05
-81,71,-19,-337,-2,3953,29.07
-81,79,-15,-335,-13,3944,29.08
-80,76,-18,-342,-13,3936,29.09
-87,79,-16,-340,-12,3945,29.07
-84,75,-17,-334,-19,3945,29.08
-79,77,-11,-326,-10,3950,29.05
-83,76,-15,-318,-16,3955,29.07
-87,79,-16,-319,-12,3954,29.08
-83,76,-15,-324,-13,3953,29.09
-86,77,-17,-325,-7,3955,29.09
-83,77,-19,-331,-7,3950,29.07
-81,74,-14,-327,-13,3948,29.09
-84,76,-8,-323,1,3954,29.07
-85,80,-14,-328,-2,3948,29.07
-85,78,-11,-328,-5,3960,29.09
-86,76,-17,-333,-8,3944,29.08
-87,79,-13,-320,-18,3956,29.08
-90,78,-14,-318,-9,3941,29.08
-89,84,-17,-324,-8,3957,29.08
-83,83,-17,-331,-10,3951,29.08
-85,74,-12,-328,-22,3954,29.06
-86,75,-7,-322,-22,3953,29.05
-83,73,-13,-318,-7,3951,29.09
-84,75,-16,-331,-3,3939,29.08
-85,77,-15,-321,-1,3934,29.06
-85,79,-17,-323,-5,3947,29.07
-86,81,-17,-326,-9,3940,29.06
-83,80,-13,-327,-16,3936,29.08
-80,80,-11,-331,-10,3927,29.08
-84,78,-11,-329,-14,3949,29.07
-90,83,-16,-322,-11,3947,29.07
-83,82,-16,-332,-1,3920,29.07
-86,78,-18,-334,-11,3953,29.06
-85,78,-15,-332,-8,3959,29.08
-85,76,-14,-332,-8,3960,29.07
-84,78,-15,-329,-6,3946,29.05
-85,73,-19,-327,-14,3946,29.06
-85,74,-19,-329,-12,3948,29.06
-81,75,-14,-332,-12,3929,29.05
-84,75,-15,-330,-17,3947,29.07
-84,86,-15,-327,-15,3929,29.08
-86,81,-13,-321,-11,3935,29.09
-83,79,-18,-335,-6,3948,29.08
-83,81,-12,-332,-21,3954,29.08
-83,80,-15,-332,-13,3943,29.10
-87,79,-19,-325,-11,3946,29.08
-87,74,-17,-319,-11,3934,29.09
-84,75,-13,-328,-9,3945,29.10
-83,77,-14,-328,3,3945,29.10
-82,79,-16,-327,0,3953,29.08
-78,73,-18,-327,-2,3944,29.07
-84,77,-16,-321,-6,3941,29.07
-87,81,-13,-327,-11,3956,29.08
-83,80,-11,-328,-11,3950,29.07
-84,75,-15,-329,-11,3935,29.09
-85,85,-13,-333,-11,3932,29.07
-87,83,-12,-329,-14,3938,29.08
-85,82,-16,-316,-13,3943,29.07
-88,78,-12,-325,-14,3939,29.09
-90,83,-21,-329,-12,3957,29.07
-88,74,-15,-332,-8,3943,29.08
-88,80,-14,-334,-14,3932,29.07
-87,77,-12,-329,-17,3942,29.06
-87,82,-18,-315,-13,3954,29.07
-93,76,-12,-330,-12,3948,29.09
-87,68,-17,-330,-5,3952,29.08
-89,76,-16,-329,-13,3937,29.09
-82,79,-14,-328,-8,3937,29.09
-80,79,-13,-324,-8,3949,29.09
-87,80,-10,-323,-9,3952,29.09
-85,70,-15,-326,-10,3941,29.09
-84,76,-18,-331,-2,3933,29.09
-84,80,-16,-318,5,3930,29.08
-88,81,-18,-323,6,3938,29.09
-88,82,-13,-325,-2,3929,29.07
-82,80,-13,-328,-5,3948,29.08
-88,83,-15,-328,-10,3951,29.09
-82,78,-16,-331,-5,3944,29.10
-84,78,-14,-328,1,3933,29.07
-85,77,-17,-325,-12,3952,29.09
-85,73,-14,-322,-5,3936,29.08
-82,79,-16,-326,-10,3945,29.09
-86,75,-17,-315,-4,3951,29.09
-84,81,-15,-315,3,3948,29.09
-84,78,-15,-324,0,3946,29.09
-85,73,-15,-320,1,3945,29.09
-82,76,-18,-318,-10,3943,29.10
-85,85,-13,-314,-12,3950,29.10
-96,76,-14,-329,-5,3943,29.09
-89,75,-20,-323,-16,3953,29.09
-85,73,-13,-331,-2,3951,29.09
-86,79,-11,-330,-3,3955,29.09
-84,78,-17,-326,-5,3968,29.10
-80,80,-18,-329,-8,3964,29.09
-81,80,-15,-323,-1,3945,29.10
-80,80,-15,-324,-5,3946,29.08
-83,79,-18,-321,-4,3931,29.06
-86,80,-19,-333,-11,3944,29.07
-85,75,-16,-331,-10,3940,29.06
-78,74,-15,-339,-10,3939,29.07
-81,77,-15,-331,-1,3936,29.07
-84,74,-15,-328,-5,3948,29.06
-87,79,-12,-320,-10,3942,29.07
-86,81,-11,-319,-12,3952,29.07
-90,83,-10,-334,-11,3949,29.08
-84,78,-11,-329,-12,3953,29.10
-83,75,-17,-320,-7,3960,29.08
-80,76,-13,-334,-10,3956,29.09
-88,79,-17,-325,-2,3937,29.07
-87,81,-17,-325,-14,3941,29.08
-86,80,-15,-330,-12,3939,29.09
-86,78,-16,-324,-3,3937,29.08
-87,80,-14,-317,-18,3928,29.07
-86,76,-18,-323,-11,3939,29.09
-85,74,-16,-329,-8,3924,29.08
-82,76,-15,-327,-12,3952,29.08
-84,76,-18,-324,-16,3943,29.07
-84,73,-17,-329,-10,3944,29.08
-85,77,-14,-326,-2,3944,29.07
-82,74,-13,-320,-3,3919,29.08
-89,75,-14,-328,-1,3944,29.08
-89,81,-15,-331,2,3947,29.10
-89,80,-13,-327,-9,3937,29.10
-83,76,-15,-325,-10,3939,29.11
-81,76,-13,-325,-7,3940,29.10
-79,78,-18,-319,-7,3937,29.09
-79,81,-14,-322,-13,3954,29.08
-83,83,-16,-320,-16,3944,29.08
-78,77,-12,-326,-10,3939,29.09
-82,79,-15,-330,-14,3930,29.10
-86,82,-12,-334,-14,3941,29.09
-84,75,-15,-340,-13,3948,29.11
-88,84,-14,-332,4,3938,29.11
-87,80,-16,-320,-6,3945,29.10
-86,82,-13,-315,4,3953,29.09
-88,81,-9,-317,-9,3956,29.07
-85,74,-17,-330,-9,3939,29.10
-84,77,-14,-324,-12,3940,29.09
-81,79,-19,-323,-9,3929,29.08
-83,75,-20,-326,-3,3924,29.07
-85,76,-19,-330,-15,3933,29.06
-84,78,-19,-339,-16,3944,29.09
-85,78,-15,-332,-12,3952,29.08
-83,76,-18,-322,-6,3948,29.07
-88,74,-17,-328,-7,3929,29.12
-88,81,-16,-317,-5,3947,29.12
-85,80,-14,-319,-8,3946,29.12
-82,81,-12,-320,-17,3943,29.11
-84,86,-16,-320,-17,3926,29.12
-85,78,-15,-328,-8,3925,29.09
-84,81,-13,-330,-7,3938,29.09
-85,84,-14,-323,-3,3939,29.11
-85,76,-13,-331,-6,3927,29.11
-84,78,-13,-334,0,3945,29.12
-81,72,-18,-331,-2,3946,29.11
-81,76,-18,-330,-17,3952,29.11
-82,76,-15,-324,-13,3937,29.09
-82,78,-12,-329,-11,3941,29.09
-83,79,-10,-335,-14,3937,29.10
-83,74,-19,-327,-18,3933,29.10
-83,73,-21,-337,-9,3950,29.09
-83,72,-19,-333,-18,3949,29.08
-78,79,-18,-331,-24,3938,29.10
-80,78,-16,-326,-14,3947,29.10
-80,75,-12,-321,-5,3940,29.10
-87,74,-11,-320,-7,3943,29.10
-82,80,-19,-335,-14,3940,29.11
-83,80,-17,-335,-11,3946,29.11
-82,82,-15,-320,-14,3948,29.10
-86,82,-14,-330,-11,3969,29.10
-84,74,-16,-333,-13,3946,29.08
-80,76,-16,-335,3,3946,29.09
-83,79,-15,-336,2,3942,29.10
-81,78,-16,-317,3,3944,29.09
-83,81,-17,-325,-6,3951,29.10
-85,80,-19,-327,3,3943,29.09
-82,82,-16,-328,2,3944,29.10
-82,84,-17,-329,-3,3936,29.12
-83,75,-14,-326,-4,3939,29.10
-85,76,-14,-325,-11,3932,29.09
-88,70,-11,-332,7,3925,29.09
-85,75,-18,-342,-11,3955,29.09
-79,81,-20,-340,-6,3963,29.10
-82,78,-19,-331,-11,3955,29.11
-79,78,-13,-331,-19,3951,29.09
-83,81,-14,-323,-16,3945,29.08
-85,74,-13,-318,-17,3934,29.10
-86,77,-13,-316,-4,3945,29.10
-87,80,-12,-328,-4,3942,29.09
-87,73,-17,-325,-8,3947,29.07
-83,72,-11,-326,-8,3942,29.08
-80,73,-15,-319,-3,3951,29.09
-84,81,-15,-326,-12,3948,29.11
-79,78,-15,-330,-9,3940,29.08
-80,78,-16,-315,-4,3944,29.09
-76,86,-17,-327,3,3945,29.08
-83,82,-16,-328,3,3939,29.11
-80,78,-17,-335,4,3941,29.09
-84,75,-16,-335,-1,3941,29.09
-83,74,-13,-325,-8,3939,29.08
-84,79,-17,-330,-3,3949,29.09
-78,80,-12,-322,1,3952,29.08
-86,81,-18,-322,4,3941,29.09
-87,75,-13,-315,-5,3936,29.08
-84,76,-16,-320,-17,3935,29.11
-81,79,-11,-324,-11,3934,29.08
-89,81,-15,-327,-10,3947,29.10
-87,77,-15,-333,-9,3953,29.07
-88,81,-16,-328,-6,3949,29.09
-87,80,-19,-328,-9,3951,29.07
-87,81,-14,-321,-18,3935,29.09
-85,81,-12,-316,-18,3951,29.11
-85,78,-15,-329,-8,3955,29.13
-84,78,-16,-331,-7,3949,29.12
-87,78,-14,-331,-15,3948,29.12
-83,79,-12,-330,-12,3944,29.11
-84,73,-10,-319,-14,3948,29.11
-85,74,-13,-322,-13,3943,29.12
-86,76,-13,-326,-8,3930,29.12
-83,80,-13,-328,-15,3947,29.10
-83,79,-12,-335,-6,3955,29.09
-82,82,-13,-319,1,3938,29.06
-84,79,-19,-321,-8,3927,29.11
-84,85,-18,-327,-8,3936,29.11
-87,87,-12,-321,-4,3942,29.09
-85,84,-16,-323,-10,3944,29.09
-87,76,-17,-308,-13,3939,29.08
-82,83,-15,-317,-15,3929,29.05
-79,79,-18,-326,-4,3943,29.07
-80,77,-12,-321,5,3943,29.09
-81,80,-10,-321,4,3950,29.07
-84,81,-13,-332,-11,3950,29.07
-83,82,-15,-326,-5,3951,29.07
-80,80,-13,-313,-14,3943,29.10
-88,82,-13,-324,-17,3955,29.10
-86,79,-16,-330,-10,3948,29.09
-83,78,-15,-319,-10,3952,29.10
-86,74,-13,-318,-4,3946,29.10
-87,72,-15,-328,-4,3945,29.10
-83,77,-13,-324,-11,3951,29.11
-83,75,-12,-323,-14,3945,29.11
-82,79,-19,-331,4,3942,29.10
-86,74,-15,-325,-8,3952,29.11
-82,75,-14,-342,-13,3942,29.10
-85,85,-17,-325,-7,3940,29.09
-83,84,-13,-325,-11,3937,29.09
-82,77,-18,-328,-8,3946,29.09
-87,77,-17,-323,-14,3940,29.10
-85,76,-15,-311,-12,3938,29.09
-87,83,-17,-325,-6,3960,29.10
-86,81,-13,-331,-4,3957,29.09
-84,74,-19,-324,0,3937,29.09
-86,73,-18,-325,-11,3932,29.09
-84,77,-15,-326,-20,3941,29.08
-77,75,-17,-328,-17,3944,29.09
-85,74,-17,-341,-9,3943,29.10
-86,78,-16,-328,-14,3943,29.08
-82,84,-15,-328,-15,3958,29.08
-86,78,-21,-325,-10,3942,29.09
-88,78,-14,-333,-6,3943,29.11
-84,70,-10,-333,-9,3924,29.09
-81,78,-15,-332,-5,3934,29.11
-84,77,-18,-323,-11,3933,29.08
-90,75,-17,-327,-3,3930,29.08
-84,78,-18,-328,-7,3931,29.09
-86,81,-17,-322,-13,3952,29.09
-90,80,-17,-326,-16,3953,29.10
-83,80,-16,-321,-13,3946,29.10
-83,77,-17,-338,-6,3940,29.10
-83,79,-16,-329,-5,3949,29.10
-79,72,-12,-317,-6,3932,29.08
-83,73,-15,-338,-23,3928,29.07
-85,74,-16,-337,-9,3936,29.09
-87,74,-17,-332,-10,3951,29.11
-83,74,-14,-323,-6,3940,29.11
-84,75,-10,-326,-9,3947,29.10
-82,80,-12,-344,-13,3942,29.11
-84,83,-15,-333,-10,3946,29.10
-80,76,-16,-329,-11,3957,29.11
-83,73,-14,-324,-8,3955,29.12
-86,77,-19,-333,3,3961,29.10
-84,78,-18,-325,-8,3957,29.11
-86,80,-14,-321,-16,3942,29.09
-83,81,-20,-326,-15,3937,29.09
-79,73,-20,-325,-4,3935,29.09
-82,78,-24,-320,-12,3950,29.09
-83,76,-21,-315,-15,3946,29.11
-83,79,-22,-321,-19,3944,29.11
-84,83,-12,-327,-12,3943,29.11
-81,77,-14,-326,-14,3949,29.11
-81,71,-17,-334,-10,3956,29.09
-80,77,-18,-328,-18,3951,29.12
-86,81,-15,-326,-12,3944,29.10
-84,85,-10,-333,-11,3938,29.07
-80,79,-14,-336,-13,3947,29.08
-84,83,-13,-335,-9,3936,29.09
-85,78,-12,-330,-6,3944,29.09
-81,76,-18,-329,-10,3927,29.10
-88,79,-17,-333,-20,3935,29.11
-87,83,-17,-336,-10,3945,29.10
-88,81,-19,-321,-6,3956,29.09
-84,75,-12,-329,-8,3937,29.08
-80,80,-12,-329,-14,3922,29.09
-83,79,-16,-319,-1,3922,29.10
-81,80,-15,-315,-6,3935,29.10
-82,78,-16,-324,-1,3947,29.10
-81,80,-15,-316,-8,3945,29.09
-80,75,-15,-321,-18,3939,29.11
-80,77,-21,-326,-11,3927,29.09
-83,82,-19,-319,-15,3938,29.10
-81,77,-17,-320,-11,3952,29.11
-85,76,-15,-330,-2,3947,29.12
-88,76,-14,-335,-11,3949,29.11
-82,80,-14,-329,-6,3945,29.10
-81,79,-19,-329,-7,3938,29.12
-81,74,-16,-322,-15,3935,29.11
-80,76,-15,-328,-13,3942,29.13
-82,78,-13,-326,-11,3952,29.11
-88,74,-15,-331,-9,3947,29.10
-89,78,-18,-328,-20,3943,29.09
-88,71,-19,-315,-15,3938,29.07
-85,80,-19,-327,-10,3942,29.09
-83,80,-19,-333,4,3942,29.11
-84,80,-14,-333,6,3948,29.11
-85,82,-15,-329,8,3945,29.10
-82,76,-17,-328,-9,3946,29.09
-85,77,-14,-331,-10,3941,29.14
-80,79,-14,-331,-3,3940,29.13
-81,70,-17,-330,-16,3941,29.08
-83,77,-18,-326,-20,3949,29.10
-83,75,-15,-320,-12,3955,29.10
-80,75,-13,-325,-12,3933,29.10
-88,84,-10,-330,-12,3942,29.10
-80,79,-17,-323,-8,3928,29.09
-89,80,-19,-330,-3,3929,29.10
-87,81,-14,-321,2,3934,29.12
-84,72,-18,-329,-6,3942,29.12
-83,76,-19,-340,-9,3946,29.12
-84,70,-13,-333,-12,3943,29.10
-89,75,-11,-333,-9,3939,29.12
-82,73,-12,-332,-3,3952,29.12
-82,78,-9,-320,-6,3942,29.08
-83,78,-14,-320,-4,3962,29.09
-82,78,-14,-324,-2,3952,29.09
-83,76,-16,-329,-1,3948,29.11
-85,76,-12,-329,-2,3951,29.09
-85,79,-17,-328,-9,3957,29.09
-87,73,-14,-339,-15,3950,29.11
-84,76,-13,-337,-13,3958,29.11
-85,79,-16,-334,-14,3932,29.09
-88,72,-14,-337,-8,3950,29.11
-85,79,-15,-334,-10,3962,29.10
-84,70,-16,-325,-12,3951,29.10
-83,79,-17,-327,-9,3929,29.10
-86,78,-18,-314,-10,3919,29.09
-87,77,-17,-322,-10,3926,29.10
-79,78,-19,-325,-10,3935,29.11
-87,80,-13,-319,-6,3934,29.12
-89,73,-18,-329,1,3944,29.08
-89,75,-14,-324,1,3932,29.08
-87,82,-16,-327,-16,3949,29.08
-89,85,-16,-323,-10,3954,29.10
-83,85,-16,-325,-6,3945,29.11
-86,77,-13,-331,-7,3939,29.11
-86,76,-17,-327,-8,3937,29.10
-84,71,-14,-323,-11,3927,29.10
-83,75,-15,-324,-8,3920,29.11
-81,78,-13,-339,-13,3940,29.10
-78,80,-14,-336,-13,3943,29.09
-81,77,-15,-328,1,3934,29.11
-83,73,-15,-326,-2,3943,29.10
-83,80,-19,-327,-8,3934,29.09
-81,79,-17,-331,-8,3944,29.11
-86,81,-15,-328,-7,3967,29.12
-88,78,-19,-327,6,3936,29.12
-85,80,-15,-329,-6,3934,29.09
-82,78,-15,-328,-7,3940,29.09
-86,74,-17,-320,-15,3947,29.09
-81,81,-16,-325,-9,3955,29.10
-82,75,-16,-331,-10,3951,29.10
-79,81,-16,-321,2,3952,29.10
-81,85,-11,-330,9,3946,29.09
-81,74,-17,-335,0,3931,29.09
-84,76,-13,-333,-7,3945,29.10
-89,77,-11,-322,-12,3939,29.11
-86,77,-9,-323,-21,3943,29.09
-83,74,-14,-319,-18,3955,29.10
-85,75,-14,-320,-12,3949,29.12
-84,78,-17,-323,-8,3944,29.11
-83,77,-14,-324,-9,3940,29.10
-79,83,-12,-320,-17,3949,29.13
-82,73,-10,-324,-18,3955,29.11
-83,75,-15,-325,-4,3939,29.12
-83,81,-14,-329,-1,3938,29.07
-84,78,-19,-333,-8,3937,29.10
-82,80,-15,-331,-12,3944,29.10
-85,74,-13,-323,-4,3963,29.11
-89,65,-14,-331,-16,3946,29.11
-86,70,-18,-330,-21,3937,29.10
-86,75,-20,-331,-18,3932,29.09
-81,75,-16,-340,-14,3951,29.09
-85,75,-17,-327,-3,3955,29.09
-82,75,-18,-337,-8,3942,29.10
-78,80,-14,-334,-13,3940,29.09
-86,79,-13,-332,1,3937,29.09
-82,77,-15,-314,-9,3949,29.10
-85,79,-14,-317,-13,3944,29.13
-90,83,-14,-326,-5,3946,29.10
-92,80,-14,-322,0,3955,29.10
-84,75,-12,-330,-5,3956,29.11
-86,81,-15,-334,3,3936,29.09
-86,77,-16,-331,1,3936,29.09
-85,80,-16,-327,-12,3937,29.12
-79,82,-15,-332,-9,3948,29.12
-84,80,-16,-336,-18,3933,29.12
-84,77,-15,-325,-11,3932,29.09
-80,83,-19,-333,0,3922,29.10
-82,83,-14,-325,2,3942,29.09
-82,75,-13,-331,-5,3941,29.09
-80,75,-12,-320,-6,3929,29.10
-82,75,-17,-337,-14,3936,29.12
-86,77,-14,-335,-13,3941,29.12
-85,76,-13,-328,-1,3936,29.11
-86,75,-16,-333,3,3943,29.11
-87,73,-18,-334,-1,3919,29.11
-89,75,-16,-335,-4,3942,29.10
-87,80,-14,-330,-12,3943,29.12
-88,77,-18,-326,-8,3953,29.13
-86,83,-13,-334,-18,3951,29.10
-85,76,-15,-333,-15,3940,29.10
-90,84,-14,-327,-4,3943,29.11
-84,81,-10,-332,-10,3945,29.11
-83,79,-13,-328,-14,3936,29.09
-82,77,-12,-332,-14,3935,29.08
-82,75,-15,-323,-11,3928,29.12
-81,76,-16,-331,0,3934,29.10
-81,77,-16,-328,-1,3940,29.09
-80,78,-18,-320,-4,3938,29.07
-85,81,-13,-331,-5,3944,29.09
-88,84,-15,-327,1,3948,29.09
-88,82,-16,-320,-4,3950,29.10
-91,76,-17,-329,-2,3943,29.11
-86,77,-17,-332,-4,3942,29.09
-88,75,-17,-330,-12,3949,29.08
-83,77,-12,-324,-14,3948,29.11
-82,80,-11,-335,-17,3948,29.10
-80,81,-12,-336,-11,3938,29.11
-87,81,-15,-334,-14,3931,29.12
-84,85,-11,-330,-8,3933,29.10
-86,75,-11,-327,-5,3944,29.09
-87,78,-17,-327,-17,3949,29.09
-85,82,-14,-331,-7,3948,29.10
-87,76,-14,-317,-13,3935,29.10
-83,75,-14,-328,-15,3948,29.09
-83,72,-12,-328,-3,3933,29.09
-86,79,-16,-327,7,3940,29.07
-85,75,-16,-334,-4,3943,29.10
-82,73,-21,-329,-15,3946,29.09
-79,79,-16,-329,-12,3944,29.11
-81,76,-16,-327,-18,3951,29.09
-83,76,-15,-319,-7,3951,29.10
-79,73,-14,-326,-16,3934,29.09
-88,75,-16,-333,-12,3940,29.10
-88,76,-18,-327,-13,3942,29.11
-88,75,-20,-324,-6,3942,29.10
-85,70,-15,-326,-14,3948,29.11
-84,77,-14,-323,-5,3951,29.10
-87,75,-14,-321,-16,3936,29.11
-82,79,-18,-320,-5,3944,29.11
-81,85,-19,-324,-11,3957,29.10
-79,79,-19,-324,-15,3941,29.10
-81,83,-19,-319,-7,3935,29.10
-84,79,-19,-325,-13,3939,29.12
-77,80,-15,-315,-4,3930,29.11
-80,74,-14,-315,0,3939,29.11
-80,77,-16,-318,-7,3936,29.08
-87,78,-13,-322,-3,3948,29.10
-88,75,-16,-325,-11,3958,29.10
-86,81,-12,-328,-9,3942,29.08
-87,78,-13,-335,-18,3937,29.11
-84,79,-14,-328,-14,3953,29.12
-80,77,-14,-323,-13,3944,29.12
-83,76,-14,-327,-13,3946,29.11
-86,76,-11,-328,-15,3939,29.12
-81,80,-23,-327,-17,3940,29.12
-83,81,-21,-328,-1,3931,29.11
-83,80,-21,-322,-6,3929,29.11
-84,79,-21,-324,-7,3942,29.10
-83,85,-19,-337,1,3943,29.13
-84,75,-18,-333,-7,3935,29.12
-76,73,-19,-326,0,3925,29.13
-77,77,-17,-332,-17,3932,29.12
-79,77,-15,-336,-4,3945,29.11
-82,81,-15,-328,-8,3946,29.12
-86,72,-11,-323,-10,3940,29.11
-81,75,-6,-329,-19,3939,29.10
-80,68,-13,-326,-13,3948,29.11
-90,81,-11,-326,-15,3939,29.12
-88,79,-17,-322,-12,3946,29.13
-86,83,-20,-329,-12,3949,29.13
-85,80,-15,-318,-12,3957,29.13
-80,75,-17,-321,-8,3939,29.10
-82,79,-15,-339,-1,3949,29.10
-82,84,-18,-330,0,3934,29.12
-81,80,-16,-322,-3,3934,29.11
-85,84,-15,-324,-5,3944,29.12
-85,80,-18,-329,-8,3939,29.10
-79,78,-15,-328,-8,3937,29.10
-80,77,-12,-319,-11,3942,29.10
-77,80,-14,-326,-5,3951,29.13
-77,85,-14,-330,-1,3953,29.11
-78,83,-16,-327,-2,3938,29.13
-78,83,-17,-327,-15,3936,29.14
-81,81,-15,-332,-19,3937,29.12
-82,85,-10,-331,-9,3948,29.10
-84,75,-11,-329,-10,3931,29.12
-82,69,-13,-332,-10,3947,29.11
-81,75,-17,-324,-7,3937,29.13
-87,78,-14,-330,-14,3920,29.10
-87,78,-14,-325,-9,3927,29.14
-85,72,-14,-325,-4,3941,29.12
-80,78,-14,-328,4,3951,29.13
-85,81,-16,-325,-5,3943,29.10
-84,76,-13,-328,-13,3929,29.09
-86,78,-16,-336,-14,3934,29.08
-81,76,-19,-328,-6,3930,29.09
-83,76,-18,-325,-4,3952,29.10
-80,82,-15,-326,-2,3934,29.09
-83,74,-15,-338,-9,3937,29.11
-80,79,-14,-334,-11,3946,29.12
-84,80,-12,-336,-16,3952,29.11
-85,74,-13,-326,-9,3952,29.11
-86,76,-11,-324,-6,3952,29.13
-85,84,-11,-325,-24,3953,29.12
-91,79,-12,-329,-21,3951,29.11
-85,80,-12,-331,-14,3945,29.11
-87,79,-16,-331,-10,3955,29.11
-87,80,-12,-331,-2,3940,29.11
-86,77,-17,-332,-10,3945,29.10
-88,77,-14,-338,-11,3940,29.09
-83,76,-16,-337,-19,3934,29.12
-80,81,-18,-326,-11,3943,29.12
-84,79,-12,-318,-11,3942,29.11
-83,81,-12,-331,-19,3939,29.10
-85,79,-15,-328,-15,3951,29.12
-91,79,-15,-324,-5,3933,29.13
-87,78,-17,-328,-18,3945,29.12
-83,75,-13,-328,-11,3941,29.12
-85,79,-12,-333,-7,3944,29.12
-87,81,-15,-339,-5,3946,29.11
-83,80,-15,-344,-15,3938,29.11
-89,82,-16,-345,-13,3934,29.10
-86,75,-13,-330,-5,3937,29.09
-89,71,-12,-332,-16,3930,29.11
-80,77,-14,-329,-22,3938,29.11
-87,76,-22,-328,-17,3938,29.10
-91,70,-17,-323,-19,3936,29.11
-87,74,-13,-329,-5,3935,29.12
-87,79,-13,-313,-9,3945,29.11
-84,77,-14,-325,-3,3947,29.12
-85,77,-15,-327,-5,3949,29.11
-81,77,-14,-329,-5,3933,29.11
-86,74,-17,-327,0,3948,29.11
-83,73,-17,-327,-2,3931,29.13
-84,79,-18,-327,-4,3941,29.12
-83,81,-19,-326,-4,3920,29.09
-84,75,-17,-326,-17,3933,29.11
-82,80,-17,-327,-10,3938,29.10
-87,77,-11,-328,-15,3937,29.11
-90,76,-13,-332,-15,3931,29.11
-84,83,-18,-331,-9,3928,29.11
-84,77,-20,-330,-8,3944,29.11
-82,75,-20,-332,-19,3949,29.10
-83,73,-15,-336,-11,3934,29.12
-81,78,-13,-341,-3,3935,29.13
-86,81,-19,-334,10,3932,29.12
-87,81,-14,-333,3,3939,29.13
-87,79,-12,-332,-11,3945,29.11
-86,72,-16,-328,-13,3932,29.11
-83,76,-17,-329,-10,3950,29.13
-87,81,-15,-325,-11,3951,29.13
-85,80,-16,-331,-7,3935,29.13
-86,84,-18,-330,-6,3946,29.12
-84,78,-10,-322,-10,3931,29.10
-88,79,-12,-327,-8,3958,29.12
-84,72,-14,-327,-14,3942,29.13
-90,79,-12,-320,1,3942,29.12
-83,85,-13,-320,-2,3939,29.12
-88,86,-14,-329,-7,3933,29.12
-84,79,-15,-331,-7,3937,29.12
-85,76,-17,-331,-10,3937,29.12
-83,79,-14,-330,-9,3943,29.10
-83,74,-16,-330,-5,3947,29.11
-85,81,-16,-320,-11,3941,29.12
-84,78,-17,-322,-1,3934,29.12
-86,76,-18,-322,-7,3938,29.09
-83,89,-13,-326,-9,3947,29.10
-83,82,-11,-321,-8,3933,29.11
-85,83,-13,-321,-19,3931,29.12
-85,80,-13,-327,-14,3958,29.09
-85,72,-15,-324,-12,3950,29.10
-87,77,-18,-324,10,3958,29.11
-83,78,-17,-330,-5,3944,29.12
-81,77,-19,-326,-7,3936,29.10
-81,78,-17,-332,-13,3944,29.12
-83,81,-23,-335,-17,3947,29.12
-83,82,-16,-327,-18,3947,29.12
-88,79,-15,-335,-16,3957,29.12
-88,78,-15,-328,-15,3950,29.13
-84,82,-17,-331,-12,3946,29.13
-87,74,-12,-333,-5,3938,29.12
-82,79,-16,-335,-22,3937,29.09
-83,81,-15,-318,-17,3934,29.09
-89,74,-10,-317,-14,3953,29.11
-87,84,-13,-324,-9,3938,29.12
-83,84,-17,-323,-3,3940,29.10
-81,80,-23,-331,-7,3948,29.13
-82,81,-14,-323,-6,3953,29.12
-88,80,-15,-325,0,3942,29.11
-82,75,-19,-330,-16,3942,29.10
-82,79,-22,-319,-13,3950,29.11
-83,71,-14,-325,-16,3959,29.12
-83,77,-12,-319,-15,3936,29.12
-78,73,-15,-332,-13,3936,29.11
-81,76,-17,-329,-3,3942,29.13
-81,72,-20,-330,-12,3965,29.11
-82,74,-15,-325,-15,3955,29.10
-82,75,-14,-318,-5,3944,29.14
-82,73,-17,-325,3,3937,29.11
-83,78,-14,-330,-6,3929,29.13
-81,79,-14,-323,-15,3945,29.12
-82,80,-17,-323,-5,3937,29.10
-81,77,-18,-328,-15,3940,29.12
-87,77,-17,-335,-13,3945,29.11
-85,77,-13,-327,-6,3955,29.14
-91,76,-18,-328,-12,3938,29.10
-89,75,-22,-320,-10,3930,29.12
-81,77,-21,-320,-9,3940,29.12
-82,77,-15,-324,0,3943,29.14
-86,78,-13,-327,-6,3940,29.13
-88,74,-17,-334,-17,3941,29.11
-89,76,-15,-329,-12,3938,29.12
-85,83,-15,-324,-17,3939,29.14
-87,77,-15,-313,-8,3928,29.14
-84,81,-13,-330,-6,3940,29.12
-85,73,-17,-331,-12,3936,29.14
-87,76,-13,-329,-6,3941,29.14
-84,75,-12,-336,-12,3931,29.14
-85,81,-13,-330,-3,3935,29.14
-88,76,-16,-322,-7,3949,29.13
-89,78,-12,-322,-4,3930,29.12
-84,84,-16,-321,-14,3924,29.10
-82,79,-15,-323,-8,3942,29.12
-83,81,-14,-328,-7,3937,29.11
-86,79,-13,-325,-4,3919,29.10
-82,80,-13,-338,-13,3928,29.12
-83,82,-12,-325,-11,3945,29.11
-81,77,-17,-336,-11,3947,29.13
-84,77,-14,-335,-3,3942,29.13
-89,84,-13,-332,-10,3949,29.12
-87,80,-13,-333,-6,3945,29.13
-87,74,-16,-324,-8,3945,29.10
-86,78,-13,-321,-12,3955,29.11
-86,78,-12,-335,-6,3956,29.13
-84,85,-14,-331,-11,3956,29.13
-88,80,-18,-331,-15,3938,29.12
-85,84,-15,-331,-3,3938,29.15
-85,76,-9,-332,-4,3947,29.13
-89,71,-14,-328,1,3948,29.12
-83,78,-18,-325,-8,3936,29.13
-83,74,-17,-326,-5,3941,29.14
-82,75,-17,-326,-5,3945,29.12
-85,74,-20,-334,-5,3944,29.12
-81,74,-17,-327,-4,3942,29.15
-83,78,-14,-329,-10,3944,29.12
-83,80,-18,-325,-4,3921,29.13
-89,80,-17,-325,-7,3925,29.12
-83,72,-18,-329,-6,3930,29.14
-78,78,-17,-326,-4,3943,29.14
-81,75,-12,-334,-11,3964,29.13
-83,83,-16,-332,-3,3940,29.13
-85,75,-22,-328,-2,3946,29.13
-81,76,-21,-331,3,3950,29.13
-84,78,-12,-324,0,3947,29.13
-79,79,-15,-333,-8,3947,29.11
-78,76,-17,-330,-1,3959,29.14
-82,79,-14,-328,-7,3958,29.12
-86,77,-16,-327,-3,3952,29.12
-85,83,-17,-322,-9,3957,29.13
-86,77,-15,-335,-10,3935,29.14
-83,81,-17,-340,-12,3937,29.13
-78,79,-13,-327,-20,3929,29.12
-80,79,-12,-334,-11,3948,29.12
-83,74,-15,-333,-7,3943,29.12
-82,76,-16,-333,2,3949,29.13
-81,79,-18,-329,4,3955,29.12
-83,76,-22,-320,-6,3950,29.12
-82,74,-13,-323,-8,3942,29.13
-84,76,-10,-330,3,3940,29.12
-84,78,-11,-340,-14,3932,29.13
-87,71,-14,-332,-16,3937,29.11
-84,79,-16,-330,-10,3950,29.13
-86,84,-18,-332,-7,3953,29.13
-85,80,-18,-329,-4,3944,29.14
-83,79,-15,-333,-8,3951,29.15
-81,75,-16,-326,-8,3945,29.11
-81,73,-14,-329,-12,3940,29.11
-81,72,-15,-326,-14,3928,29.11
-78,78,-21,-326,-10,3952,29.13
-83,78,-18,-323,-2,3942,29.14
-80,82,-17,-332,3,3956,29.12
-83,76,-15,-332,-4,3939,29.11
-83,75,-16,-334,-6,3956,29.11
-80,83,-20,-340,-11,3953,29.13
-84,83,-18,-341,-11,3940,29.13
-87,79,-17,-331,-7,3941,29.14
-84,73,-13,-327,-6,3939,29.13
-83,76,-9,-325,-3,3955,29.12
-80,79,-12,-328,-9,3946,29.12
-83,79,-17,-330,-12,3954,29.12
-87,80,-15,-317,-11,3942,29.09
-83,85,-18,-323,-15,3949,29.11
-86,80,-18,-323,-13,3941,29.12
-81,80,-18,-323,-17,3939,29.13
-83,76,-18,-328,-8,3940,29.12
-83,76,-16,-321,4,3933,29.13
-83,74,-16,-320,-11,3932,29.09
-89,74,-19,-330,-18,3938,29.11
-86,72,-16,-326,-23,3946,29.12
-86,75,-15,-326,-12,3949,29.13
-81,77,-13,-334,-5,3949,29.13
-82,77,-12,-328,-5,3934,29.13
-82,80,-17,-324,-9,3928,29.13
-86,70,-14,-338,-9,3940,29.14
-87,79,-18,-342,0,3947,29.11
-89,81,-16,-326,1,3949,29.13
-89,74,-19,-322,-1,3943,29.12
-86,76,-13,-324,-6,3933,29.12
-83,74,-12,-320,-9,3936,29.12
-82,87,-16,-324,-12,3942,29.11
-86,83,-15,-324,-4,3944,29.14
-83,76,-15,-322,-6,3934,29.12
-86,78,-16,-316,-11,3938,29.13
-82,78,-16,-322,-7,3951,29.10
-86,76,-19,-338,-16,3939,29.13
-85,71,-18,-339,-5,3930,29.14
-86,76,-16,-327,-13,3926,29.14
-88,80,-17,-322,-9,3931,29.13
-88,85,-12,-325,-6,3950,29.14
-84,78,-13,-337,-8,3955,29.13
-87,73,-18,-326,-11,3958,29.12
-85,80,-14,-333,-4,3949,29.15
-83,85,-16,-336,-5,3940,29.14
-79,79,-12,-338,-8,3951,29.14
-84,77,-10,-340,-6,3942,29.13
-83,73,-6,-332,-9,3936,29.13
-82,66,-13,-326,-3,3944,29.13
-83,73,-11,-320,-4,3936,29.12
-83,74,-13,-333,-2,3931,29.13
-78,76,-12,-327,-8,3941,29.12
-82,77,-13,-334,-12,3938,29.12
-88,73,-14,-326,-5,3940,29.12
-89,77,-18,-319,-8,3933,29.12
-92,77,-19,-326,-14,3939,29.14
-90,77,-12,-329,-8,3932,29.11
-87,79,-14,-319,-15,3927,29.12
-84,79,-16,-321,-14,3930,29.12
-84,80,-20,-334,-8,3938,29.12
-84,79,-14,-336,-9,3935,29.12
-83,71,-11,-330,-3,3944,29.11
-86,76,-16,-321,-8,3959,29.13
-80,75,-15,-323,-12,3953,29.13
-81,80,-10,-340,-15,3954,29.12
-84,79,-12,-341,-8,3943,29.13
-81,75,-14,-334,-2,3960,29.12
-88,76,-16,-335,-1,3944,29.12
-86,76,-17,-330,-3,3948,29.12
-86,79,-13,-324,0,3934,29.12
-88,76,-16,-333,-1,3934,29.13
-86,77,-15,-328,5,3932,29.14
-87,71,-12,-323,-6,3935,29.14
-84,72,-10,-327,-7,3952,29.14
-83,73,-17,-334,-19,3949,29.13
-87,74,-17,-333,-16,3932,29.11
-84,81,-15,-329,-5,3942,29.12
-84,76,-10,-318,-6,3951,29.12
-80,79,-11,-324,-18,3943,29.13
-85,82,-16,-310,-21,3940,29.12
-83,79,-15,-316,-14,3950,29.11
-87,75,-14,-325,-9,3944,29.11
-83,83,-16,-317,-2,3930,29.11
-81,80,-17,-331,-7,3950,29.14
-76,72,-20,-327,-4,3941,29.16
-78,72,-20,-328,-14,3943,29.16
-84,77,-15,-336,-9,3935,29.14
-88,79,-17,-330,-11,3929,29.10
-88,81,-16,-327,-9,3933,29.10
-80,84,-16,-323,-9,3928,29.13
-78,77,-20,-324,-11,3924,29.14
-80,76,-16,-327,-18,3945,29.14
-85,74,-13,-325,-15,3939,29.16
-84,72,-17,-328,-10,3931,29.16
-86,71,-21,-319,-7,3933,29.14
-82,75,-17,-323,-5,3934,29.14
-87,75,-17,-331,-4,3931,29.14
-87,72,-13,-329,-14,3935,29.13
-86,72,-14,-331,-12,3933,29.12
-80,76,-17,-328,-9,3947,29.14
-83,74,-16,-333,-6,3944,29.15
-86,77,-14,-330,-8,3922,29.14
-82,76,-15,-324,-6,3927,29.13
-78,77,-12,-325,-7,3939,29.12
-87,79,-15,-320,-2,3934,29.15
-84,73,-18,-321,-9,3936,29.14
-83,77,-21,-329,-9,3926,29.16
-80,71,-20,-332,-13,3935,29.15
-80,75,-22,-325,-6,3935,29.14
-80,78,-17,-334,-9,3937,29.14
-84,80,-17,-324,-3,3945,29.14
-89,82,-19,-332,-1,3941,29.12
-85,80,-19,-324,-7,3939,29.12
-83,82,-20,-324,0,3937,29.12
-86,77,-18,-321,-8,3959,29.14
-81,77,-14,-324,-4,3962,29.14
-82,76,-14,-330,-6,3949,29.15
-84,81,-13,-336,-6,3944,29.16
-85,80,-19,-338,-6,3935,29.16
-81,72,-18,-337,-9,3936,29.12
-82,76,-17,-323,-10,3953,29.12
-81,74,-17,-324,-23,3954,29.12
-82,78,-11,-334,-10,3945,29.13
-82,76,-15,-331,-5,3937,29.14
-83,76,-15,-326,-4,3941,29.14
-82,78,-12,-323,0,3938,29.15
-81,78,-16,-328,-11,3939,29.14
-85,77,-17,-336,-20,3937,29.15
-86,71,-18,-331,-12,3938,29.14
-82,78,-19,-327,-9,3937,29.11
-90,82,-17,-326,-19,3935,29.12
-78,78,-17,-335,-6,3956,29.14
-80,82,-15,-334,-10,3946,29.14
-87,76,-18,-327,-3,3953,29.15
-85,79,-20,-312,-13,3945,29.13
-82,77,-17,-318,-17,3935,29.13
-85,77,-17,-324,-18,3941,29.15
-82,75,-18,-326,-10,3938,29.14
-84,74,-16,-324,-6,3929,29.16
-84,70,-17,-322,-2,3932,29.15
-82,81,-14,-327,0,3937,29.12
-86,75,-18,-323,-2,3946,29.14
-87,76,-17,-324,0,3959,29.15
-85,79,-17,-324,2,3948,29.17
-86,75,-13,-325,-4,3943,29.15
-79,80,-13,-320,-12,3938,29.15
-83,78,-9,-319,-4,3929,29.12
-85,80,-13,-330,-1,3931,29.13
-82,82,-14,-332,-2,3929,29.13
-79,83,-15,-332,-3,3929,29.14
-88,85,-11,-322,10,3953,29.14
-87,69,-9,-313,7,3952,29.13
-90,64,-19,-307,1,3944,29.14
-85,67,-13,-329,3,3916,29.15
-84,85,-18,-329,-13,3893,29.14
-85,90,-19,-325,-7,3909,29.16
-79,90,-15,-330,-15,3932,29.17
-81,92,-11,-333,-23,3955,29.17
-80,97,-9,-339,-19,3956,29.16
-83,94,-13,-341,-16,3940,29.17
-90,89,-18,-337,-19,3928,29.15
-88,98,-15,-337,-10,3925,29.14
-88,85,-14,-338,-12,3950,29.15
-89,76,-13,-328,-14,3954,29.18
-90,55,-15,-325,-7,3951,29.17
-85,52,-18,-329,-3,3939,29.16
-85,54,-17,-323,-9,3927,29.16
-83,61,-19,-316,-4,3904,29.15
-84,65,-17,-315,4,3913,29.14
-82,79,-14,-325,1,3912,29.14
-82,96,-11,-324,4,3932,29.14
-78,105,-10,-325,7,3939,29.13
-83,101,-11,-319,-1,3952,29.14
-83,102,-16,-323,-6,3950,29.13
-86,96,-20,-326,-9,3954,29.13
-85,94,-21,-337,-15,3965,29.12
-83,83,-13,-337,-11,3955,29.11
-90,75,-20,-335,-13,3967,29.14
-88,64,-18,-339,-21,3956,29.12
-89,58,-20,-334,-24,3941,29.12
-85,51,-18,-325,-8,3922,29.14
-81,50,-20,-323,-7,3917,29.12
-86,56,-14,-321,-4,3927,29.12
-79,74,-13,-321,-7,3952,29.12
-87,81,-15,-317,1,3952,29.14
-79,92,-19,-317,-1,3931,29.14
-83,93,-16,-328,-4,3931,29.13
-82,96,-13,-330,3,3948,29.13
-84,92,-17,-331,4,3953,29.14
-82,83,-12,-337,-4,3936,29.14
-80,79,-14,-331,-6,3933,29.14
-85,66,-13,-333,-19,3934,29.14
-86,59,-17,-327,-22,3940,29.14
-88,64,-12,-336,-11,3926,29.16
-81,70,-14,-328,-25,3945,29.16
-85,81,-19,-332,-17,3948,29.15
-79,91,-13,-340,-8,3942,29.14
-87,91,-12,-331,-4,3934,29.17
-81,95,-16,-327,-7,3940,29.13
-86,98,-14,-325,-3,3937,29.14
-92,88,-21,-329,-7,3931,29.15
-88,75,-16,-327,-5,3916,29.16
-84,57,-23,-330,-5,3928,29.16
-82,57,-20,-316,1,3925,29.15
-83,49,-13,-316,2,3920,29.14
-83,57,-14,-313,-6,3937,29.14
-83,71,-18,-320,-5,3935,29.15
-82,93,-19,-318,-9,3920,29.15
-78,104,-18,-320,-4,3922,29.17
-81,105,-16,-330,-6,3942,29.19
-89,107,-13,-337,-10,3949,29.15
-84,93,-16,-332,-18,3948,29.15
-80,85,-15,-332,-11,3921,29.15
-90,79,-20,-334,-23,3933,29.13
-86,64,-18,-329,-13,3937,29.14
-87,50,-17,-340,-13,3945,29.14
-86,54,-13,-334,-8,3925,29.13
-87,63,-12,-323,-19,3946,29.13
-83,70,-20,-319,-8,3941,29.15
-88,86,-16,-323,-8,3928,29.14
-89,93,-21,-324,-16,3931,29.14
-86,96,-18,-327,-2,3934,29.15
-86,97,-16,-317,-3,3946,29.16
-85,93,-15,-320,-7,3935,29.14
-88,77,-13,-320,-9,3944,29.14
-84,66,-15,-320,-8,3943,29.16
-85,69,-18,-317,-7,3958,29.14
-81,65,-16,-325,-1,3942,29.14
-81,59,-10,-326,2,3929,29.15
-83,69,-13,-311,-9,3934,29.16
-83,84,-17,-330,2,3944,29.14
-86,88,-14,-328,0,3957,29.15
-82,97,-9,-337,-2,3954,29.15
-88,90,-12,-332,-14,3952,29.17
-87,82,-13,-324,-6,3949,29.16
-89,72,-15,-337,-10,3955,29.15
-84,65,-10,-333,-15,3957,29.15
-77,59,-15,-325,-11,3937,29.14
-82,64,-15,-318,-3,3935,29.15
-82,66,-18,-331,3,3926,29.15
-81,82,-14,-329,-3,3928,29.14
-81,91,-20,-328,0,3944,29.13
-88,93,-11,-339,-3,3935,29.14
-91,94,-18,-329,-1,3932,29.13
-83,92,-15,-330,-5,3923,29.13
-82,79,-16,-315,-8,3934,29.15
-83,74,-16,-326,-19,3939,29.14
-84,74,-15,-324,-16,3940,29.15
-82,71,-16,-334,-24,3946,29.16
-85,69,-17,-328,-7,3940,29.18
-87,65,-18,-327,-11,3945,29.16
-88,73,-13,-335,-13,3934,29.16
-91,83,-16,-340,-22,3939,29.16
-88,88,-12,-321,-17,3931,29.13
-88,84,-11,-321,-5,3926,29.13
-88,87,-14,-325,1,3938,29.12
-88,86,-17,-322,-7,3943,29.15
-81,76,-18,-318,-11,3941,29.13
-82,71,-20,-316,-11,3936,29.15
-85,65,-20,-320,-16,3953,29.15
-85,70,-15,-327,-7,3960,29.14
-81,71,-14,-319,-11,3942,29.14
-86,72,-14,-325,-8,3945,29.15
-82,78,-13,-332,-17,3937,29.14
-88,83,-16,-327,-8,3923,29.16
-83,79,-18,-336,-6,3931,29.14
-81,82,-19,-333,1,3929,29.15
-87,85,-15,-324,-1,3936,29.13
-90,76,-16,-332,-11,3923,29.14
-85,71,-18,-338,-3,3931,29.11
-81,64,-17,-331,-1,3949,29.13
-84,66,-17,-321,0,3947,29.15
-84,75,-15,-329,-8,3941,29.15
-82,82,-10,-321,0,3934,29.14
-81,81,-16,-327,-2,3940,29.15
-83,80,-20,-334,2,3962,29.14
-81,90,-17,-338,-2,3959,29.14
-78,90,-14,-327,-4,3953,29.13
-81,87,-13,-320,-7,3943,29.14
-86,77,-9,-330,-1,3936,29.15
-85,78,-12,-328,-18,3943,29.15
-87,75,-11,-332,-19,3929,29.14
-85,77,-14,-331,-10,3927,29.13
-86,81,-15,-331,-13,3934,29.14
-84,80,-15,-329,-15,3938,29.14
-80,72,-17,-334,-21,3949,29.12
-85,79,-16,-336,-10,3951,29.12
-83,80,-17,-333,-14,3937,29.14
-87,74,-10,-330,-11,3939,29.13
-86,81,-16,-332,-8,3955,29.16
-82,85,-15,-328,-6,3946,29.14
-85,80,-18,-340,-8,3945,29.13
-80,77,-16,-319,-12,3949,29.17
-80,81,-18,-322,-12,3946,29.15
-82,80,-19,-328,-4,3934,29.14
-83,77,-17,-324,-10,3929,29.16
-87,79,-15,-321,-11,3938,29.15
-85,91,-16,-331,-6,3952,29.16
-91,85,-17,-330,-12,3938,29.15
-86,84,-15,-330,-12,3939,29.15
-84,77,-19,-332,-8,3940,29.16
-85,82,-17,-326,-12,3948,29.16
-87,78,-14,-324,-16,3940,29.15
-91,79,-15,-327,-18,3941,29.14
-85,73,-14,-335,-14,3939,29.15
-91,75,-18,-337,-13,3935,29.14
-89,67,-17,-328,-20,3939,29.14
-86,78,-14,-316,-16,3930,29.15
-82,78,-11,-329,-16,3940,29.13
-83,79,-16,-317,-18,3941,29.14
-78,77,-16,-321,-5,3931,29.15
-71,79,-16,-320,-12,3935,29.17
-84,76,-10,-328,-23,3943,29.15
-84,82,-15,-331,-19,3938,29.16
-83,73,-19,-324,-20,3927,29.15
-83,77,-15,-338,-13,3929,29.18
-82,77,-19,-332,-18,3938,29.17
-85,77,-22,-329,-3,3939,29.16
-90,84,-20,-331,-7,3942,29.17
-88,78,-13,-333,-12,3948,29.16
-88,80,-16,-331,-3,3940,29.15
-92,85,-16,-334,-12,3948,29.16
-85,87,-16,-335,-6,3946,29.15
-79,84,-14,-337,-7,3942,29.16
-81,81,-17,-317,-11,3953,29.15
-79,76,-12,-323,-6,3942,29.14
-84,78,-5,-327,-13,3939,29.14
-79,81,-13,-330,-13,3938,29.14
-82,81,-16,-331,-11,3940,29.13
-84,76,-12,-330,-10,3946,29.15
-86,76,-15,-331,-15,3942,29.14
-81,70,-14,-327,-13,3940,29.17
-84,76,-12,-329,-10,3938,29.16
-81,86,-16,-334,-4,3930,29.15
-78,81,-16,-334,-2,3939,29.16
-78,78,-16,-334,-5,3961,29.15
-81,80,-16,-331,-16,3935,29.12
-83,78,-14,-323,-10,3935,29.14
-86,79,-14,-321,-6,3946,29.12
-84,81,-21,-331,-2,3933,29.14
-79,75,-15,-330,5,3944,29.16
-85,86,-15,-325,-9,3948,29.16
-84,82,-12,-323,-8,3955,29.16
-85,87,-11,-327,-6,3955,29.14
-87,87,-16,-328,1,3942,29.17
-80,82,-12,-327,-10,3968,29.16
-80,82,-15,-327,-11,3951,29.14
-83,79,-19,-325,-3,3940,29.15
-84,77,-19,-326,-6,3938,29.16
-85,79,-16,-317,-11,3930,29.16
-84,76,-11,-327,-10,3938,29.14
-87,79,-14,-325,-10,3944,29.15
-81,80,-12,-330,-19,3941,29.15
-82,80,-11,-322,-14,3947,29.16
-81,80,-12,-330,-9,3943,29.18
-81,76,-13,-332,-9,3944,29.17
-83,78,-13,-334,3,3939,29.15
-83,77,-14,-341,5,3947,29.16
-81,76,-10,-338,-7,3938,29.15
-81,76,-20,-340,-14,3948,29.17
-87,71,-18,-326,-21,3944,29.15
-83,72,-18,-326,-8,3958,29.16
-83,77,-17,-332,-12,3936,29.15
-87,78,-19,-329,-15,3945,29.17
-84,87,-18,-329,-9,3937,29.15
-86,78,-13,-335,-14,3936,29.15
-85,82,-16,-329,-10,3943,29.16
-83,84,-14,-333,-6,3934,29.15
-83,82,-14,-324,-1,3949,29.15
-82,75,-16,-325,-12,3962,29.13
-82,75,-14,-337,-7,3948,29.15
-91,81,-13,-316,-13,3922,29.14
-91,80,-18,-324,-4,3966,29.13
-85,81,-22,-329,-26,3957,29.15
-81,87,-16,-329,-17,3937,29.14
-84,90,-16,-324,-4,3937,29.14
-82,81,-12,-325,-9,3917,29.14
-86,73,-16,-329,-3,3933,29.16
-83,71,-19,-329,-8,3945,29.14
-82,71,-19,-330,-4,3936,29.13
-87,74,-14,-335,-10,3931,29.13
-87,73,-14,-342,-16,3928,29.15
-84,85,-13,-333,-10,3915,29.17
-83,83,-17,-319,-3,3939,29.16
-80,80,-16,-317,-3,3945,29.14
-88,79,-15,-323,-8,3958,29.16
-87,80,-11,-332,-3,3936,29.16
-85,77,-17,-327,-8,3932,29.13
-82,83,-11,-341,-9,3941,29.16
-84,79,-17,-338,-18,3951,29.15
-88,74,-16,-324,-9,3944,29.14
-82,71,-19,-323,-2,3950,29.15
-86,78,-15,-332,-6,3939,29.17
-84,85,-15,-341,-15,3929,29.16
-82,74,-15,-323,-19,3935,29.15
-82,83,-14,-318,-18,3950,29.14
-81,77,-13,-324,-8,3929,29.16
-85,82,-17,-321,-5,3925,29.16
-86,86,-18,-319,-11,3949,29.15
-87,83,-20,-321,-12,3957,29.14
-82,75,-19,-320,-7,3943,29.14
-81,77,-19,-330,-10,3940,29.12
-85,66,-14,-330,-7,3933,29.15
-89,68,-16,-333,-14,3934,29.16
-77,72,-16,-325,-9,3942,29.15
-86,83,-12,-336,-12,3947,29.16
-85,81,-13,-337,-11,3933,29.17
-85,78,-18,-324,-7,3949,29.15
-87,79,-14,-320,-2,3937,29.14
-76,76,-13,-326,-10,3944,29.13
-78,78,-11,-314,-6,3933,29.14
-86,76,-13,-318,-10,3930,29.14
-91,79,-14,-325,0,3935,29.16
-85,77,-16,-331,5,3955,29.16
-84,75,-14,-331,-5,3951,29.17
-80,74,-12,-330,-6,3947,29.16
-82,73,-15,-329,-8,3945,29.16
-81,76,-19,-334,-12,3931,29.17
-84,81,-16,-327,-16,3951,29.16
-83,86,-20,-324,-9,3950,29.17
-81,83,-12,-326,-10,3931,29.16
-82,83,-11,-328,-12,3932,29.17
-81,80,-12,-332,-8,3949,29.16
-83,81,-15,-323,-3,3938,29.14
-85,78,-13,-320,-8,3927,29.16
-85,77,-13,-336,-2,3939,29.15
-86,76,-14,-326,-8,3944,29.16
-83,82,-12,-323,-9,3939,29.16
-84,83,-14,-328,-6,3949,29.16
-86,80,-10,-326,-13,3940,29.17
-85,79,-15,-337,-16,3945,29.16
-85,81,-15,-340,-21,3920,29.17
-83,76,-18,-333,-6,3932,29.16
-84,80,-20,-328,-3,3951,29.16
-88,71,-17,-324,-4,3933,29.15
-85,72,-13,-338,-12,3925,29.16
-85,73,-12,-335,-6,3929,29.14
-82,76,-14,-326,-8,3948,29.14
-89,76,-20,-323,-6,3945,29.18
-85,80,-21,-331,-5,3949,29.19
-84,81,-16,-333,-7,3932,29.18
-85,74,-16,-331,-4,3954,29.14
-82,76,-12,-337,5,3949,29.13
-83,74,-15,-337,-7,3950,29.11
-83,73,-12,-333,-6,3949,29.14
-83,76,-13,-327,-3,3928,29.13
-78,76,-15,-332,-11,3933,29.15
-88,72,-16,-320,-13,3926,29.17
-88,82,-15,-323,-6,3933,29.16
-88,77,-15,-335,-5,3950,29.17
-84,82,-13,-336,-2,3935,29.17
-88,87,-13,-339,-7,3927,29.15
-84,82,-14,-330,-6,3935,29.16
-82,76,-17,-339,-1,3941,29.17
-87,70,-16,-339,-5,3931,29.15
-83,75,-18,-336,-8,3944,29.17
-86,77,-16,-340,-9,3950,29.17
-89,83,-16,-329,-10,3938,29.16
-89,84,-13,-332,-5,3935,29.17
-85,72,-15,-331,-1,3953,29.16
-82,79,-15,-329,2,3964,29.18
-82,81,-12,-329,-7,3930,29.18
-83,79,-17,-325,-12,3926,29.17
-81,78,-19,-328,-8,3927,29.17
-81,79,-20,-323,-15,3935,29.14
-85,77,-14,-321,-15,3939,29.17
-82,75,-20,-330,-13,3948,29.17
-78,76,-19,-325,-5,3952,29.18
-83,75,-17,-327,-7,3952,29.17
-84,75,-17,-330,-8,3941,29.15
-84,84,-15,-330,-11,3932,29.17
-84,81,-13,-319,-7,3937,29.16
-86,84,-14,-329,-13,3945,29.15
-87,81,-9,-330,7,3941,29.15
-81,78,-18,-326,-5,3930,29.16
-81,74,-13,-325,-4,3931,29.15
-85,79,-14,-330,-15,3941,29.14
-85,73,-16,-326,-7,3935,29.15
-78,72,-16,-324,-1,3933,29.16
-80,79,-15,-326,-6,3939,29.14
-79,79,-17,-321,-6,3956,29.14
-84,81,-17,-317,-4,3945,29.14
-82,78,-17,-320,-1,3939,29.17
-84,80,-12,-331,-2,3927,29.18
-85,69,-14,-334,0,3940,29.17
-80,72,-21,-327,-6,3938,29.17
-75,70,-21,-333,0,3938,29.17
-72,72,-17,-326,3,3934,29.15
-76,80,-15,-322,-6,3941,29.13
-83,79,-12,-330,-9,3945,29.12
-87,81,-14,-326,-7,3961,29.14
-80,82,-18,-318,-5,3949,29.14
-82,82,-16,-331,-3,3941,29.17
-81,80,-16,-332,-6,3965,29.17
-83,81,-16,-332,-3,3959,29.15
-84,84,-16,-329,-6,3955,29.15
-84,82,-17,-332,-12,3946,29.17
-84,78,-16,-330,1,3937,29.16
-87,74,-14,-331,-5,3951,29.15
-85,75,-13,-324,-4,3948,29.17
-78,78,-15,-323,8,3947,29.16
-84,73,-15,-323,-9,3952,29.17
-87,80,-20,-330,-8,3936,29.17
-82,81,-17,-341,-15,3929,29.15
-86,78,-17,-326,-8,3926,29.16
-87,77,-13,-321,-14,3937,29.13
-86,75,-13,-324,-9,3939,29.16
-86,80,-13,-318,-12,3934,29.16
-84,79,-12,-325,-8,3933,29.17
-84,88,-13,-328,0,3937,29.16
-84,83,-15,-326,5,3937,29.15
-84,76,-15,-327,-2,3934,29.15
-85,79,-9,-331,2,3935,29.15
-83,82,-12,-329,-1,3952,29.14
-89,73,-14,-326,1,3944,29.16
-84,77,-10,-324,-4,3951,29.15
-83,77,-18,-311,-11,3935,29.16
-80,80,-12,-318,-10,3939,29.16
-81,70,-16,-314,-11,3927,29.16
-86,77,-16,-324,-19,3934,29.17
-81,79,-16,-334,-10,3930,29.18
-85,80,-15,-342,5,3925,29.18
-87,76,-18,-328,-6,3931,29.17
-84,75,-18,-314,-14,3930,29.16
-84,82,-14,-314,-22,3939,29.14
-84,82,-17,-322,-18,3938,29.16
-82,83,-18,-328,-14,3947,29.17
-84,76,-15,-342,-17,3945,29.18
-81,80,-17,-333,-11,3936,29.15
-82,79,-13,-329,-18,3945,29.15
-82,74,-12,-319,-20,3937,29.17
-78,79,-14,-328,-5,3934,29.19
-79,82,-12,-325,-11,3924,29.16
-83,83,-11,-328,-15,3929,29.14
-83,78,-16,-331,-10,3931,29.15
-82,81,-17,-335,-19,3936,29.15
-83,77,-12,-330,-13,3941,29.16
-81,73,-13,-339,-12,3925,29.16
-88,75,-15,-338,-6,3935,29.15
-88,80,-20,-332,-10,3941,29.16
-83,82,-18,-324,-7,3958,29.15
-84,77,-15,-331,-7,3941,29.17
-83,75,-15,-337,-9,3940,29.18
-81,75,-16,-320,-6,3947,29.17
-79,73,-10,-330,-2,3943,29.16
-87,80,-12,-330,-7,3934,29.18
-85,78,-16,-321,-9,3935,29.16
-88,80,-13,-325,-5,3930,29.16
-86,81,-14,-323,-11,3940,29.17
-82,77,-19,-323,0,3942,29.16
-84,86,-17,-329,-2,3941,29.17
-84,80,-19,-335,-14,3936,29.16
-80,77,-15,-325,-3,3946,29.16
-81,77,-20,-328,0,3953,29.15
-87,74,-16,-325,5,3945,29.15
-85,70,-14,-336,4,3936,29.16
-85,71,-15,-327,-8,3932,29.18
-83,78,-17,-327,-13,3933,29.18
-81,82,-18,-328,-10,3939,29.18
-81,79,-16,-332,-9,3941,29.17
-81,78,-12,-329,-8,3946,29.17
-80,77,-13,-331,-9,3938,29.16
-83,75,-15,-338,-17,3947,29.16
-81,70,-14,-327,-9,3925,29.17
-82,77,-10,-333,-10,3936,29.16
-88,77,-14,-336,-4,3942,29.17
-89,81,-18,-332,-10,3941,29.18
-91,72,-17,-336,-3,3946,29.20
-85,75,-16,-333,-12,3943,29.18
-84,79,-14,-332,-12,3942,29.19
-82,78,-16,-333,-10,3943,29.15
-83,82,-17,-333,-12,3932,29.16
-86,83,-15,-336,-16,3932,29.16
-88,81,-14,-327,-10,3945,29.18
-82,78,-15,-319,-4,3941,29.14
-84,73,-12,-327,-6,3921,29.17
-83,73,-18,-328,-14,3952,29.17
-83,75,-14,-321,-4,3950,29.18
-80,74,-12,-332,-9,3934,29.17
-81,78,-15,-339,-9,3936,29.17
-87,73,-18,-321,-8,3947,29.19
-76,79,-18,-315,-7,3947,29.20
-84,78,-18,-321,-14,3939,29.17
-80,79,-14,-334,-10,3924,29.17
-80,74,-13,-324,-7,3949,29.20
-81,79,-18,-320,-15,3961,29.19
-80,83,-15,-323,-16,3942,29.19
-81,78,-16,-324,-19,3952,29.19
-85,77,-15,-330,-12,3939,29.19
-81,82,-11,-334,-9,3946,29.17
-86,85,-13,-336,-11,3943,29.17
-80,82,-19,-331,-10,3924,29.18
-80,77,-19,-333,-17,3936,29.18
-85,76,-15,-333,-12,3931,29.15
-84,77,-21,-337,-6,3945,29.13
-87,72,-19,-334,1,3955,29.16
-84,79,-19,-332,5,3970,29.18
-90,84,-20,-326,-3,3959,29.16
-84,80,-18,-322,-11,3950,29.17
-80,79,-17,-325,-1,3948,29.15
-82,83,-15,-320,-5,3952,29.15
-81,82,-19,-333,-8,3954,29.18
-78,80,-17,-336,-14,3948,29.17
-81,80,-15,-340,-4,3933,29.16
-85,79,-17,-334,-8,3937,29.19
-79,84,-20,-330,-11,3936,29.18
-82,84,-19,-327,-8,3946,29.19
-85,74,-15,-324,1,3936,29.16
-85,76,-16,-328,-3,3953,29.17
-80,75,-16,-331,-11,3937,29.15
-80,76,-16,-348,-13,3929,29.14
-79,73,-17,-332,-5,3940,29.14
-77,73,-18,-336,-3,3934,29.15
-81,74,-18,-331,-11,3931,29.16
-85,79,-18,-329,-7,3934,29.16
-84,76,-22,-329,-14,3944,29.15
-85,75,-19,-327,-12,3946,29.18
-83,77,-15,-326,-3,3940,29.17
-83,79,-9,-333,-3,3936,29.14
-86,74,-15,-340,-15,3936,29.13
-82,78,-11,-337,-12,3947,29.16
-86,77,-14,-330,-7,3947,29.18
-84,75,-10,-332,-7,3951,29.18
-84,73,-8,-330,-19,3956,29.17
-85,76,-11,-331,-12,3964,29.17
-78,78,-14,-328,-11,3938,29.17
-83,77,-13,-332,-20,3942,29.17
-82,78,-11,-335,-20,3940,29.18
-83,83,-15,-329,-9,3950,29.19
-83,81,-18,-334,-8,3961,29.16
-87,81,-14,-333,-12,3953,29.16
-83,79,-18,-327,-12,3947,29.17
-82,77,-16,-317,-7,3933,29.15
-80,78,-15,-324,-2,3942,29.15
-83,78,-12,-323,-7,3927,29.19
-81,80,-12,-333,-1,3938,29.15
-76,81,-10,-325,-8,3938,29.16
-77,80,-17,-323,-12,3944,29.15
-82,85,-18,-329,1,3945,29.16
-84,83,-10,-329,1,3931,29.17
-84,84,-13,-326,-15,3938,29.14
-83,81,-15,-326,-4,3931,29.16
-81,75,-14,-328,-7,3936,29.16
-83,75,-17,-324,-2,3940,29.17
-82,85,-14,-327,3,3921,29.18
-85,82,-17,-326,-14,3924,29.17
-83,75,-14,-330,-14,3936,29.17
-85,81,-15,-325,-17,3943,29.16
-84,77,-18,-326,-13,3929,29.16
-78,78,-11,-323,-1,3934,29.18
-82,79,-14,-324,-8,3936,29.16
-83,80,-15,-331,-6,3953,29.14
-85,75,-14,-325,-6,3963,29.17
-84,80,-13,-336,-13,3949,29.18
-82,79,-19,-333,-19,3949,29.15
-85,82,-17,-328,-20,3936,29.17
-82,74,-14,-329,-13,3949,29.18
-82,78,-11,-324,-12,3948,29.18
-85,76,-19,-335,-3,3941,29.18
-81,79,-19,-325,-10,3935,29.17
-81,77,-19,-331,-19,3952,29.16
-82,76,-13,-328,-20,3936,29.17
-81,79,-13,-325,-14,3939,29.17
-84,79,-16,-338,-11,3944,29.18
-85,79,-16,-333,-12,3940,29.18
-88,85,-19,-323,-11,3940,29.19
-89,82,-24,-323,-9,3943,29.19
-76,86,-15,-328,-9,3936,29.17
-77,78,-11,-328,-11,3942,29.14
-87,66,-12,-330,-12,3947,29.18
-83,61,-13,-326,-7,3934,29.18
-85,52,-14,-333,2,3940,29.18
-79,53,-17,-335,-4,3937,29.17
-81,66,-15,-319,-8,3927,29.14
-83,89,-16,-323,-2,3914,29.15
-81,98,-15,-323,-5,3933,29.16
-84,116,-20,-326,-8,3918,29.17
-84,116,-15,-335,-13,3940,29.17
-78,103,-18,-342,-12,3940,29.18
-80,90,-22,-337,-3,3953,29.16
-84,63,-19,-325,-9,3940,29.18
-84,54,-16,-330,-10,3941,29.16
-87,50,-17,-330,-6,3952,29.16
-86,51,-14,-320,-2,3953,29.16
-82,61,-15,-325,-10,3933,29.16
-81,50,-21,-334,-13,3932,29.17
-87,37,-15,-334,-12,3930,29.18
-87,17,-19,-327,-7,3946,29.17
-88,27,-23,-323,-2,3948,29.17
-86,51,-21,-309,-1,3928,29.17
-79,102,-21,-308,-1,3921,29.16
-79,144,-15,-313,-5,3914,29.14
-78,185,-12,-320,-8,3941,29.16
-80,197,-13,-325,-12,3959,29.19
-77,188,-13,-340,-15,3950,29.18
-82,168,-13,-342,-4,3949,29.18
-83,142,-17,-346,-5,3952,29.16
-82,106,-12,-347,-3,3943,29.18
-86,68,-11,-358,-4,3945,29.18
-88,23,-15,-353,-14,3957,29.19
-88,-12,-15,-347,-14,3942,29.17
-90,-55,-14,-344,-9,3929,29.16
-88,-73,-17,-326,-6,3916,29.17
-85,-35,-22,-312,-4,3901,29.17
-92,45,-21,-299,-2,3904,29.17
-81,144,-14,-304,-11,3909,29.17
-79,210,-12,-333,-11,3924,29.15
-78,217,-12,-334,-4,3938,29.19
-82,197,-9,-346,0,3939,29.19
-78,179,-15,-345,3,3950,29.17
-74,153,-14,-349,-6,3956,29.17
-80,126,-17,-337,-4,3941,29.19
-87,106,-19,-335,-14,3939,29.17
-88,92,-15,-338,-12,3942,29.17
-90,82,-13,-334,-11,3937,29.18
-82,73,-14,-322,-2,3946,29.17
-78,60,-11,-323,5,3943,29.17
-84,50,-11,-337,-5,3936,29.17
-88,32,-11,-330,-11,3947,29.15
-91,13,-14,-332,-5,3942,29.16
-87,-3,-14,-336,-11,3942,29.18
-92,-25,-18,-340,-16,3938,29.15
-87,-43,-16,-332,-11,3934,29.16
-91,-37,-18,-318,-7,3931,29.16
-92,0,-17,-308,-5,3925,29.18
-87,60,-16,-301,-10,3924,29.17
-82,130,-12,-311,-4,3922,29.17
-76,174,-18,-316,-4,3928,29.17
-77,181,-10,-331,-8,3941,29.15
-81,182,-12,-341,-10,3941,29.19
-81,168,-15,-347,-15,3948,29.17
-82,159,-15,-333,-7,3957,29.17
-81,140,-10,-326,-18,3956,29.15
-76,118,-13,-337,-16,3941,29.15
-81,99,-14,-353,-11,3938,29.17
-84,81,-11,-354,-6,3948,29.17
-89,62,-16,-334,-11,3963,29.17
-86,50,-16,-327,-5,3952,29.19
-84,34,-18,-335,-9,3947,29.17
-89,13,-15,-328,-7,3960,29.18
-83,6,-18,-331,-11,3944,29.19
-82,-22,-18,-325,-9,3926,29.19
-89,-24,-18,-323,-4,3925,29.17
-93,-19,-24,-324,-10,3929,29.18
-85,12,-19,-320,4,3903,29.18
-81,74,-20,-307,-10,3928,29.17
-84,131,-16,-316,-8,3935,29.16
-79,160,-18,-325,-14,3934,29.16
-77,159,-18,-328,-4,3940,29.17
-79,155,-19,-327,-7,3958,29.17
-76,138,-19,-323,-1,3942,29.20
-86,129,-14,-334,-7,3941,29.19
-82,108,-16,-338,-8,3950,29.18
-79,100,-16,-334,-7,3943,29.16
-84,82,-14,-335,1,3935,29.18
-81,69,-12,-329,-2,3938,29.16
-83,57,-14,-334,-10,3937,29.19
-88,36,-19,-340,-8,3938,29.17
-92,29,-18,-337,-7,3953,29.18
-89,8,-18,-329,-15,3960,29.19
-87,-7,-15,-328,-14,3952,29.19
-85,-6,-18,-327,-11,3948,29.17
-88,25,-16,-315,-4,3929,29.17
-86,80,-18,-312,-3,3917,29.18
-79,135,-17,-318,5,3943,29.17
-83,147,-15,-341,-11,3952,29.18
-86,122,-12,-347,-16,3964,29.18
-83,77,-16,-341,-7,3975,29.18
-89,45,-14,-341,-7,3965,29.17
-84,30,-15,-329,-11,3942,29.19
-83,55,-13,-310,-10,3923,29.18
-80,118,-14,-297,-5,3896,29.16
-79,203,-11,-304,-11,3915,29.16
-72,284,-12,-293,-12,3903,29.19
-67,373,-8,-307,-12,3907,29.19
-66,437,-11,-309,-15,3918,29.18
-65,495,-11,-326,-9,3919,29.17
-58,547,-12,-320,-7,3942,29.18
-57,572,-8,-335,-7,3952,29.17
-58,561,-11,-349,-5,3948,29.18
-57,533,-9,-358,-8,3966,29.18
-60,436,-11,-375,-8,3972,29.19
-71,323,-15,-390,4,3975,29.17
-73,210,-11,-381,0,3978,29.17
-83,77,-13,-379,-9,3970,29.17
-86,-46,-19,-378,-11,3969,29.17
-97,-150,-15,-375,-10,3965,29.17
-97,-224,-20,-356,-16,3963,29.18
-99,-271,-23,-342,-7,3953,29.17
-106,-264,-23,-344,-6,3935,29.19
-103,-238,-19,-334,-3,3944,29.18
-97,-207,-16,-325,-17,3925,29.18
-98,-190,-19,-333,-7,3948,29.18
-92,-177,-22,-339,-4,3946,29.20
-95,-181,-22,-346,-22,3949,29.17
-100,-216,-21,-357,-16,3957,29.18
-105,-274,-24,-353,-5,3953,29.18
-107,-346,-23,-355,-8,3974,29.18
-104,-419,-28,-328,-23,3973,29.15
-88,-396,-31,-292,-9,3906,29.16
-85,-243,-27,-267,-9,3858,29.16
-90,-23,-20,-259,-9,3844,29.19
-86,198,-14,-283,-17,3857,29.19
-76,352,-5,-300,-14,3905,29.17
-76,385,-6,-333,-8,3966,29.17
-77,292,-12,-367,1,4003,29.19
-80,118,-14,-392,3,4016,29.18
-85,-70,-22,-379,-4,4007,29.17
-92,-211,-30,-352,-13,3970,29.18
-92,-261,-31,-325,-8,3927,29.18
-87,-204,-21,-304,-4,3890,29.16
-83,-73,-20,-279,-3,3869,29.17
-80,80,-19,-280,-17,3879,29.19
-80,214,-13,-293,-11,3903,29.18
-83,283,-11,-313,-9,3925,29.19
-84,271,-14,-348,-11,3953,29.18
-78,185,-15,-368,-16,3989,29.17
-84,53,-14,-364,-6,4008,29.16
-86,-59,-23,-356,-13,4000,29.17
-94,-129,-19,-341,-7,3969,29.16
-93,-122,-21,-314,2,3931,29.18
-88,-61,-20,-284,-14,3924,29.18
-81,23,-21,-287,-12,3914,29.19
-84,107,-15,-295,-17,3913,29.18
-79,171,-9,-300,-9,3920,29.17
-76,200,-10,-308,-11,3934,29.18
-78,190,-9,-333,-10,3954,29.18
-83,130,-12,-345,-17,3982,29.19
-86,41,-15,-350,-21,3972,29.18
-85,-44,-20,-337,-14,3951,29.16
-88,-85,-20,-319,-2,3945,29.17
-90,-85,-20,-313,-2,3947,29.18
-85,-61,-21,-320,-14,3939,29.18
-87,-41,-22,-315,-16,3925,29.17
-92,-26,-21,-303,-14,3919,29.18
-87,1,-19,-317,-2,3928,29.19
-88,35,-20,-327,-29,3932,29.17
-84,104,-43,-485,-149,3852,29.19
-69,407,-158,-846,-304,3686,29.17
-38,853,-381,-905,-339,3771,29.18
9,901,-609,-812,-324,3962,29.16
32,822,-837,-903,-353,3945,29.16
48,747,-1080,-952,-384,3935,29.18
68,623,-1332,-906,-409,3981,29.18
75,351,-1576,-860,-435,4034,29.19
78,-18,-1820,-890,-460,4001,29.16
90,-333,-2061,-907,-441,3991,29.16
104,-592,-2286,-972,-431,3945,29.17
118,-632,-2532,-1087,-434,3856,29.16
154,-440,-2785,-1201,-428,3712,29.17
193,19,-3034,-1202,-417,3668,29.16
230,333,-3295,-1024,-398,3900,29.16
265,399,-3550,-971,-367,3881,29.18
289,290,-3795,-807,-363,4044,29.17
288,-2,-4013,-769,-341,4029,29.16
301,-172,-4185,-803,-281,3882,29.16
306,-308,-4309,-721,-262,3983,29.19
304,-451,-4412,-722,-199,3972,29.18
332,-327,-4519,-884,-202,3753,29.21
339,136,-4589,-914,-179,3730,29.20
359,427,-4666,-676,-152,3941,29.21
365,222,-4729,-515,-132,4072,29.21
360,-77,-4773,-537,-101,3973,29.20
354,-151,-4772,-576,-62,3901,29.18
345,-92,-4747,-556,-30,3914,29.20
344,-9,-4716,-545,-6,3801,29.17
345,167,-4650,-447,14,3972,29.17
342,82,-4597,-356,19,4026,29.18
337,-153,-4542,-339,48,3999,29.18
326,-154,-4437,-397,118,3849,29.19
311,114,-4296,-413,173,3801,29.19
301,320,-4143,-237,193,3930,29.18
278,139,-3981,-102,230,4066,29.20
263,-161,-3829,-105,287,4029,29.19
241,-216,-3634,-170,321,3911,29.20
223,-116,-3408,-115,360,3930,29.19
203,59,-3175,-101,376,3894,29.21
184,105,-2941,18,389,3979,29.20
161,21,-2696,105,399,4092,29.19
13,-678,-2032,4824,1829,6211,29.17
-283,-6408,509,5231,2815,6669,29.18
-509,-7247,1879,-43,1055,3335,29.17
-452,-5385,2038,-1649,352,2460,29.19
-343,-2891,1785,-1589,147,2532,29.18
-241,-860,1546,-1068,56,2953,29.17
-169,664,1445,-552,77,3316,29.19
-145,1597,1574,421,335,3839,29.18
-158,1729,1984,683,613,3969,29.19
-162,2332,2290,-110,562,3440,29.20
-150,3367,2489,-177,363,3341,29.19
-126,4440,2696,-282,144,3346,29.19
-167,5493,2838,-247,-116,3976,29.20
-191,5647,2793,-43,-338,5121,29.19
-192,4699,2438,47,-312,4858,29.20
-181,3193,1917,47,-258,4709,29.17
-183,1507,1316,60,-218,4682,29.19
-178,-212,697,48,-190,4666,29.19
-167,-1667,192,-260,-21,4234,29.19
-179,-2431,8,-350,5,4112,29.19
-193,-2776,-39,-384,-2,4128,29.19
-149,-2848,-52,-282,-38,3843,29.19
-149,-2395,16,-233,13,3771,29.18
-158,-1763,93,-206,66,3647,29.17
-135,-989,193,-177,57,3567,29.19
-114,-154,298,-175,49,3519,29.19
-90,693,399,-174,36,3530,29.20
-78,1470,480,-169,-23,3670,29.18
-86,1989,492,-165,-43,3815,29.17
-84,2206,432,-108,-89,4087,29.17
-44,1763,211,-147,-106,4255,29.17
-42,1271,64,-346,-17,4098,29.18
-49,908,22,-399,-5,4056,29.19
-68,573,2,-421,-6,4048,29.19
-78,235,-15,-427,-1,4069,29.19
-92,-94,-14,-434,4,4064,29.18
-104,-423,-22,-430,-4,4077,29.19
-116,-746,-29,-426,1,4058,29.19
-133,-1025,-33,-411,-10,4047,29.19
-112,-1198,-58,-336,-13,3907,29.18
-107,-1001,-34,-262,-12,3838,29.17
-94,-714,-27,-208,-5,3804,29.19
-89,-358,-18,-192,2,3767,29.21
-84,16,-20,-195,2,3763,29.18
-77,392,-14,-212,-3,3780,29.18
-69,751,-9,-220,1,3806,29.18
-64,1074,7,-256,6,3851,29.20
-55,1200,10,-339,-12,4062,29.19
-54,1067,-1,-390,5,4048,29.16
-58,812,-1,-409,8,4038,29.16
-72,519,-8,-416,4,4039,29.17
-74,226,-11,-420,1,4045,29.18
-86,-80,-18,-426,-4,4045,29.19
-95,-382,-21,-414,5,4032,29.18
-112,-666,-27,-405,1,4045,29.19
-115,-884,-31,-362,-31,4091,29.21
-102,-892,-42,-281,10,3899,29.19
-99,-656,-28,-240,0,3813,29.18
-97,-348,-25,-220,3,3783,29.20
-85,86,-16,-209,-4,3780,29.18
-80,434,-11,-212,-5,3788,29.17
-74,765,2,-252,1,3812,29.18
-66,966,13,-316,-7,3979,29.19
-53,880,1,-364,1,4009,29.20
-64,678,-11,-417,-3,4031,29.18
-73,421,-13,-434,-9,4046,29.19
-86,128,-12,-426,3,4037,29.18
-92,-157,-19,-415,4,4032,29.17
-105,-426,-19,-394,2,4019,29.18
-109,-630,-24,-372,-24,4034,29.19
-101,-667,-36,-300,-4,3898,29.19
-91,-466,-30,-244,-4,3811,29.19
-87,-163,-21,-232,-3,3788,29.21
-84,184,-11,-229,-6,3788,29.20
-77,519,-2,-248,-1,3824,29.20
-73,719,4,-310,-5,3928,29.19
-62,681,-7,-367,-4,3995,29.19
-68,539,-12,-380,-2,4024,29.22
-73,339,-13,-393,-7,4024,29.20
-84,121,-19,-395,3,4020,29.18
-90,-93,-24,-389,0,4001,29.19
-100,-290,-24,-378,3,4020,29.20
-100,-445,-23,-352,-20,4021,29.20
-97,-463,-27,-307,-6,3909,29.20
-89,-293,-29,-257,7,3830,29.20
-88,-12,-17,-237,4,3787,29.22
-76,304,-7,-255,-4,3831,29.19
-74,534,0,-297,-12,3908,29.20
-72,564,-3,-352,-8,3988,29.20
-73,464,-7,-373,-3,4013,29.19
-75,280,-14,-388,-10,4011,29.19
-84,73,-18,-390,-3,4020,29.21
-91,-137,-20,-382,3,4024,29.20
-99,-314,-25,-363,-5,4014,29.18
-94,-410,-32,-311,-2,3931,29.20
-92,-336,-31,-272,-4,3866,29.20
-88,-109,-21,-253,3,3819,29.18
-80,165,-11,-246,4,3835,29.18
-80,398,-5,-276,1,3888,29.19
-78,488,-7,-336,-4,4002,29.20
-73,382,-12,-364,0,4014,29.19
-77,214,-11,-388,0,4005,29.19
-83,33,-14,-391,8,4002,29.23
-95,-152,-21,-383,-6,3999,29.19
-92,-276,-27,-341,-6,3963,29.19
-89,-259,-27,-304,-7,3889,29.21
-91,-121,-22,-276,0,3862,29.22
-87,79,-15,-274,0,3861,29.19
-81,275,-9,-292,9,3886,29.20
-78,372,-7,-317,-9,3951,29.19
-79,336,-10,-354,-2,3985,29.20
-78,202,-15,-378,0,4022,29.22
-88,27,-14,-371,-3,4017,29.20
-86,-117,-22,-355,-3,3998,29.20
-88,-173,-28,-321,1,3947,29.19
-88,-117,-22,-296,4,3898,29.20
-84,14,-21,-277,3,3874,29.21
-84,165,-19,-281,1,3873,29.19
-84,265,-14,-298,-3,3925,29.21
-78,290,-11,-335,-12,3968,29.20
-80,223,-9,-358,-1,3980,29.18
-86,94,-16,-371,3,3989,29.18
-90,-31,-16,-350,3,3988,29.19
-88,-99,-20,-340,6,3964,29.19
-88,-81,-21,-320,8,3925,29.21
-83,7,-16,-302,-10,3903,29.20
-84,120,-13,-300,-6,3894,29.20
-80,207,-14,-315,2,3905,29.19
-78,236,-13,-340,-4,3944,29.21
-85,201,-14,-358,-1,3973,29.17
-88,112,-12,-365,4,3977,29.19
-86,28,-14,-351,-2,3967,29.21
-86,-20,-17,-338,0,3955,29.18
-87,-9,-11,-312,-1,3921,29.17
-85,52,-15,-302,-6,3891,29.18
-82,126,-9,-300,-6,3901,29.18
-83,180,-11,-320,2,3928,29.17
-80,194,-8,-328,5,3950,29.19
-79,160,-14,-341,-10,3951,29.18
-80,105,-10,-338,-9,3972,29.20
-80,50,-15,-328,-14,3960,29.21
-78,35,-15,-330,-8,3940,29.19
-81,44,-19,-319,-13,3934,29.20
-80,76,-21,-314,-5,3928,29.19
-87,96,-23,-313,1,3950,29.19
-90,92,-18,-328,-2,3958,29.19
-85,75,-18,-335,-4,3941,29.18
-83,56,-14,-327,-6,3945,29.18
-84,48,-18,-321,2,3938,29.19
-86,57,-15,-315,-9,3928,29.21
-86,71,-19,-324,-7,3936,29.19
-83,95,-19,-325,0,3932,29.20
-82,105,-13,-329,-3,3947,29.19
-80,94,-14,-329,-6,3947,29.20
-85,75,-16,-333,5,3945,29.18
-87,65,-14,-316,3,3934,29.20
-84,68,-18,-324,6,3944,29.22
-80,87,-17,-321,4,3945,29.18
-86,96,-13,-332,0,3938,29.19
-90,98,-14,-322,9,3936,29.20
-87,83,-12,-331,8,3938,29.18
-85,72,-13,-327,7,3950,29.19
-90,64,-14,-325,0,3941,29.19
-81,60,-16,-325,-3,3948,29.20
-80,67,-11,-322,4,3924,29.19
-83,85,-11,-330,1,3931,29.19
-87,105,-14,-321,-10,3948,29.17
-89,104,-13,-327,-8,3959,29.18
-86,94,-14,-337,-8,3952,29.17
-92,80,-18,-335,1,3948,29.17
-85,75,-18,-327,-7,3929,29.17
-88,74,-19,-324,-2,3931,29.16
-83,92,-18,-328,-10,3939,29.15
-77,112,-17,-330,-17,3930,29.17
-89,110,-14,-338,-14,3948,29.18
-85,102,-17,-337,-10,3953,29.18
-88,79,-18,-338,-12,3961,29.18
-88,57,-15,-336,-5,3945,29.19
-86,50,-15,-325,-10,3950,29.19
-78,58,-14,-323,-19,3942,29.18
-78,70,-15,-321,-13,3926,29.18
-83,90,-14,-334,-6,3928,29.21
-80,107,-16,-335,-7,3929,29.20
-80,98,-15,-336,0,3931,29.19
-89,78,-16,-329,4,3933,29.16
-90,58,-18,-322,-4,3937,29.19
-91,54,-18,-320,-13,3937,29.19
-80,67,-17,-315,-11,3933,29.18
-77,86,-20,-315,-6,3923,29.19
-75,104,-17,-318,-9,3930,29.20
-77,114,-15,-325,-12,3950,29.21
-86,88,-18,-341,-13,3949,29.22
-88,58,-14,-341,-12,3959,29.18
-84,35,-17,-328,0,3960,29.18
-82,19,-16,-328,-12,3941,29.20
-87,31,-19,-317,-9,3935,29.19
-86,67,-14,-316,-3,3914,29.19
-87,103,-13,-327,-3,3927,29.18
-82,125,-16,-339,-3,3951,29.21
-77,118,-17,-338,3,3966,29.18
-88,106,-22,-341,2,3959,29.19
-86,75,-16,-338,-3,3951,29.19
-87,49,-20,-328,8,3940,29.19
-91,48,-21,-328,-4,3922,29.21
-85,67,-20,-312,5,3925,29.20
-86,91,-12,-308,0,3933,29.22
-83,111,-12,-314,2,3944,29.21
-87,116,-9,-328,-1,3948,29.18
-83,108,-16,-334,-9,3936,29.20
-88,74,-15,-332,-4,3937,29.20
-87,63,-14,-333,2,3943,29.17
-86,58,-12,-331,2,3947,29.17
-85,60,-14,-318,-2,3945,29.19
-82,69,-15,-325,-7,3939,29.17
-84,86,-15,-334,-13,3942,29.16
-83,87,-15,-330,-13,3945,29.21
-79,83,-15,-321,-12,3949,29.19
-76,73,-20,-323,-2,3938,29.21
-77,60,-19,-321,-9,3941,29.19
-81,62,-17,-326,0,3942,29.20
-79,70,-21,-324,7,3934,29.19
-84,86,-17,-328,1,3947,29.19
-81,96,-15,-326,1,3935,29.22
-80,105,-10,-333,6,3940,29.21
-81,83,-13,-331,0,3940,29.19
-83,60,-15,-342,3,3948,29.19
-81,41,-13,-325,-5,3939,29.22
-81,37,-12,-316,-4,3929,29.20
-80,45,-11,-327,-2,3930,29.21
-87,56,-15,-328,-14,3940,29.20
