gx,gy,gz,ax,ay,az,tmp
-85,80,-14,-335,7,3964,28.51
-88,72,-16,-336,12,3970,28.52
-85,74,-10,-332,9,3973,28.51
-84,80,-13,-335,-4,3970,28.52
-82,76,-16,-336,1,3952,28.50
-85,74,-15,-329,2,3956,28.50
-86,76,-18,-331,-3,3952,28.52
-86,76,-18,-331,0,3952,28.53
-81,74,-13,-337,7,3944,28.52
-82,78,-15,-342,4,3956,28.53
-87,73,-18,-340,15,3953,28.52
-89,73,-19,-333,12,3955,28.52
-89,76,-19,-321,7,3965,28.50
-89,79,-17,-334,1,3958,28.53
-82,76,-14,-338,8,3941,28.51
-86,69,-9,-326,9,3956,28.51
-85,76,-15,-334,-9,3954,28.51
-88,77,-14,-330,9,3956,28.51
-83,77,-13,-322,10,3955,28.52
-83,79,-15,-338,-4,3959,28.53
-81,78,-17,-336,5,3964,28.52
-82,78,-19,-335,4,3946,28.54
-87,71,-17,-334,-2,3962,28.50
-89,70,-11,-336,4,3959,28.51
-84,77,-14,-335,13,3958,28.52
-88,79,-14,-339,9,3953,28.50
-88,77,-17,-333,2,3968,28.50
-84,87,-16,-333,9,3972,28.49
-87,89,-19,-345,14,3953,28.50
-91,76,-18,-334,11,3958,28.49
-93,73,-13,-334,2,3961,28.49
-89,75,-17,-345,0,3949,28.51
-95,73,-17,-341,0,3946,28.52
-91,73,-18,-343,-1,3948,28.51
-85,74,-16,-331,2,3941,28.51
-86,74,-18,-335,4,3932,28.49
-89,79,-21,-334,0,3935,28.48
-92,77,-19,-336,6,3958,28.51
-90,79,-19,-340,-2,3957,28.52
-86,82,-18,-338,-4,3940,28.53
-93,81,-21,-334,2,3962,28.52
-89,81,-17,-332,-4,3955,28.53
-88,65,-18,-325,2,3949,28.52
-87,63,-18,-329,12,3956,28.52
-85,68,-17,-332,6,3971,28.52
-86,77,-14,-331,2,3961,28.51
-91,81,-13,-326,10,3961,28.50
-87,81,-15,-322,15,3946,28.49
-87,83,-12,-339,16,3953,28.52
-86,75,-13,-328,3,3963,28.52
-92,71,-12,-339,1,3955,28.51
-90,74,-14,-334,2,3951,28.54
-89,74,-20,-343,8,3949,28.53
-87,76,-16,-322,1,3960,28.51
-87,90,-11,-329,-6,3947,28.51
-83,95,-14,-325,-2,3971,28.51
-89,91,-15,-325,14,3956,28.51
-82,83,-15,-346,4,3949,28.51
-83,83,-13,-356,0,3946,28.50
-85,73,-12,-344,-11,3956,28.50
-90,74,-13,-336,-1,3960,28.48
-89,69,-15,-339,-12,3982,28.50
-89,75,-16,-340,-13,3963,28.51
-91,72,-17,-340,-10,3958,28.48
-88,74,-14,-344,3,3964,28.51
-86,74,-17,-352,-2,3948,28.52
-87,73,-20,-342,4,3942,28.51
-88,75,-20,-334,4,3947,28.51
-91,71,-20,-326,1,3946,28.52
-90,73,-18,-330,4,3953,28.52
-86,72,-18,-327,13,3954,28.50
-78,76,-19,-335,20,3961,28.52
-85,73,-15,-333,13,3945,28.52
-84,79,-16,-323,14,3948,28.52
-87,76,-14,-323,17,3960,28.49
-86,79,-18,-324,12,3968,28.50
-84,77,-18,-328,16,3962,28.50
-84,83,-15,-339,6,3958,28.51
-84,77,-9,-337,7,3953,28.51
-82,78,-12,-330,5,3941,28.53
-89,80,-14,-319,-2,3946,28.52
-85,81,-21,-324,14,3923,28.51
-85,83,-19,-330,5,3946,28.52
-87,84,-21,-335,-3,3963,28.50
-81,81,-16,-340,-8,3968,28.50
-90,79,-16,-339,-4,3965,28.50
-82,74,-21,-341,6,3958,28.50
-89,63,-25,-335,2,3945,28.51
-86,63,-18,-335,-4,3941,28.50
-88,73,-20,-347,7,3947,28.51
-88,76,-19,-334,14,3945,28.51
-86,86,-15,-332,-1,3955,28.50
-88,91,-14,-333,-3,3959,28.50
-88,92,-17,-328,-5,3951,28.51
-89,80,-15,-333,2,3948,28.51
-88,66,-21,-324,10,3957,28.52
-91,65,-18,-330,9,3962,28.52
-85,59,-13,-320,17,3955,28.53
-86,61,-12,-328,5,3951,28.51
-86,74,-20,-334,0,3962,28.52
-83,77,-20,-330,0,3948,28.52
-90,76,-17,-340,-2,3951,28.52
-87,85,-16,-326,2,3952,28.49
-88,81,-15,-315,8,3955,28.51
-86,79,-13,-326,8,3962,28.51
-90,78,-13,-329,8,3951,28.52
-87,71,-12,-343,5,3953,28.52
-81,75,-15,-346,-2,3956,28.51
-84,71,-17,-340,4,3958,28.49
-87,73,-17,-335,-1,3954,28.50
-85,81,-16,-325,8,3946,28.51
-89,80,-12,-330,-1,3956,28.51
-86,75,-12,-339,7,3950,28.49
-93,82,-17,-331,3,3941,28.48
-85,81,-16,-336,6,3961,28.52
-85,74,-16,-328,1,3957,28.49
-88,74,-18,-331,4,3956,28.51
-90,73,-17,-327,2,3964,28.51
-88,82,-17,-328,-2,3960,28.52
-84,77,-17,-331,1,3943,28.51
-84,76,-16,-332,4,3950,28.50
-84,78,-16,-335,-1,3952,28.50
-78,73,-18,-332,-1,3953,28.49
-88,76,-19,-336,9,3950,28.50
-83,80,-18,-334,11,3961,28.49
-86,88,-18,-336,3,3968,28.48
-86,84,-16,-345,11,3965,28.50
-89,78,-14,-339,-1,3973,28.51
-88,78,-20,-341,2,3961,28.52
-90,72,-14,-337,-5,3955,28.52
-82,78,-19,-337,-9,3968,28.48
-82,78,-13,-338,-5,3965,28.51
-81,80,-13,-345,11,3943,28.49
-85,75,-13,-337,-8,3947,28.51
-85,82,-11,-340,-1,3946,28.50
-88,83,-11,-343,-6,3952,28.50
-92,84,-15,-342,5,3945,28.51
-89,79,-17,-343,3,3959,28.51
-83,71,-21,-335,4,3966,28.52
-84,75,-18,-330,-1,3950,28.52
-81,76,-15,-328,3,3948,28.52
-83,76,-13,-339,-2,3962,28.53
-84,69,-16,-336,5,3960,28.53
-85,76,-20,-332,8,3959,28.53
-91,83,-19,-338,7,3940,28.54
-89,86,-21,-324,-4,3947,28.50
-86,79,-17,-327,-2,3949,28.52
-79,88,-13,-333,1,3952,28.53
-83,79,-12,-329,5,3953,28.52
-84,78,-11,-330,4,3951,28.51
-86,81,-18,-329,6,3938,28.50
-85,78,-22,-335,-1,3939,28.49
-86,80,-19,-329,1,3952,28.51
-86,74,-16,-329,14,3945,28.52
-80,76,-17,-337,7,3954,28.53
-80,82,-14,-344,-6,3941,28.53
-88,83,-12,-341,-6,3945,28.54
-86,78,-18,-336,5,3936,28.54
-90,80,-19,-338,3,3942,28.53
-86,76,-19,-345,15,3940,28.53
-87,76,-18,-343,8,3957,28.52
-92,75,-17,-341,-2,3954,28.51
-87,74,-16,-336,1,3948,28.52
-81,74,-19,-333,2,3945,28.52
-80,73,-18,-333,3,3949,28.53
-83,77,-17,-334,2,3966,28.52
-88,77,-16,-330,-3,3961,28.52
-86,75,-15,-328,6,3964,28.52
-86,81,-14,-327,2,3958,28.50
-89,82,-13,-329,1,3961,28.52
-83,81,-15,-329,13,3963,28.52
-87,83,-18,-336,15,3964,28.54
-86,84,-16,-329,1,3972,28.51
-86,75,-16,-332,0,3955,28.51
-88,79,-18,-333,13,3951,28.51
-87,73,-15,-336,11,3943,28.51
-85,80,-14,-331,5,3946,28.51
-86,78,-15,-334,-4,3960,28.51
-86,74,-12,-348,-14,3960,28.51
-87,80,-10,-340,-3,3966,28.51
-90,85,-16,-340,-6,3969,28.53
-88,87,-13,-338,-13,3957,28.52
-86,81,-17,-332,-5,3949,28.51
-90,72,-16,-331,2,3957,28.53
-88,71,-14,-338,10,3958,28.51
-90,75,-13,-332,5,3956,28.53
-84,82,-21,-333,24,3943,28.53
-88,73,-18,-338,18,3952,28.52
-87,81,-19,-340,8,3943,28.48
-81,76,-19,-343,0,3948,28.49
-87,76,-13,-348,11,3934,28.52
-83,81,-12,-337,11,3934,28.50
-85,74,-14,-343,6,3946,28.51
-84,80,-15,-335,8,3949,28.50
-87,80,-12,-334,13,3947,28.53
-87,81,-13,-332,-3,3959,28.55
-85,80,-14,-333,3,3974,28.52
-87,76,-14,-335,-3,3955,28.50
-82,80,-17,-338,-5,3947,28.52
-85,80,-15,-338,3,3942,28.53
-86,76,-16,-336,9,3966,28.52
-92,79,-20,-332,14,3959,28.51
-91,83,-17,-328,7,3953,28.54
-90,82,-20,-335,-1,3949,28.52
-89,84,-14,-336,3,3948,28.52
-83,82,-19,-347,2,3942,28.51
-82,80,-18,-351,2,3946,28.49
-84,82,-15,-343,-15,3955,28.52
-82,75,-15,-340,-1,3947,28.53
-84,74,-21,-343,-3,3946,28.49
-83,71,-24,-343,-1,3955,28.51
-85,70,-19,-334,-5,3963,28.52
-84,73,-15,-340,-3,3951,28.51
-84,74,-17,-345,7,3959,28.52
-87,72,-19,-342,2,3947,28.52
-86,75,-17,-344,2,3960,28.53
-91,74,-14,-337,9,3953,28.53
-89,73,-14,-339,11,3948,28.53
-90,75,-13,-339,21,3957,28.53
-89,79,-18,-338,4,3958,28.52
-88,77,-16,-333,2,3956,28.54
-81,78,-14,-338,1,3960,28.53
-80,79,-15,-339,4,3957,28.53
-85,74,-14,-333,1,3946,28.51
-84,76,-11,-327,5,3959,28.52
-82,77,-14,-332,9,3952,28.52
-87,81,-17,-333,9,3950,28.53
-86,77,-15,-335,6,3957,28.53
-89,81,-21,-334,0,3969,28.54
-88,80,-12,-334,-5,3966,28.53
-89,75,-17,-342,3,3956,28.52
-82,74,-15,-333,10,3954,28.51
-88,76,-13,-331,4,3949,28.52
-85,80,-14,-334,2,3944,28.52
-86,82,-16,-335,-4,3959,28.53
-88,79,-12,-332,11,3953,28.52
-88,76,-17,-328,3,3970,28.55
-87,78,-16,-333,-10,3941,28.55
-88,72,-15,-342,1,3951,28.52
-86,74,-19,-342,1,3963,28.51
-84,75,-20,-352,5,3958,28.51
-85,79,-23,-350,-2,3948,28.49
-82,78,-21,-341,-6,3958,28.52
-82,78,-22,-328,-4,3965,28.52
-89,81,-21,-329,-1,3970,28.54
-84,73,-20,-332,16,3941,28.52
-85,75,-18,-328,0,3946,28.52
-85,77,-18,-326,1,3951,28.52
-88,74,-14,-336,9,3928,28.50
-85,77,-18,-328,7,3939,28.53
-88,79,-13,-323,2,3958,28.51
-88,76,-13,-329,-6,3957,28.51
-85,80,-14,-335,-2,3966,28.52
-86,79,-13,-335,5,3957,28.52
-86,83,-16,-328,7,3955,28.52
-85,79,-17,-334,5,3959,28.53
-87,77,-17,-342,14,3970,28.51
-80,76,-16,-330,6,3965,28.52
-87,78,-21,-327,-1,3945,28.52
-84,77,-16,-332,6,3960,28.53
-89,77,-15,-325,1,3959,28.53
-89,74,-14,-339,3,3972,28.52
-87,73,-14,-335,-5,3961,28.51
-88,81,-17,-341,-7,3959,28.53
-86,82,-15,-344,-5,3952,28.52
-84,87,-16,-325,5,3961,28.50
-89,78,-17,-331,3,3953,28.54
-87,81,-16,-327,-3,3951,28.53
-87,79,-17,-329,-6,3943,28.54
-88,76,-19,-326,7,3948,28.54
-89,83,-16,-328,0,3955,28.52
-88,83,-18,-332,7,3951,28.53
-89,84,-11,-333,5,3943,28.54
-94,81,-15,-333,5,3949,28.55
-90,76,-13,-331,-3,3952,28.53
-88,76,-12,-331,4,3946,28.51
-83,75,-15,-332,1,3951,28.53
-83,74,-14,-328,1,3955,28.54
-85,79,-13,-342,2,3941,28.53
-83,77,-13,-347,10,3936,28.55
-84,77,-13,-342,8,3938,28.56
-86,81,-13,-338,5,3955,28.53
-86,83,-15,-333,-1,3951,28.53
-86,75,-15,-327,3,3946,28.52
-84,74,-21,-334,5,3947,28.50
-86,72,-19,-324,8,3950,28.52
-84,78,-17,-327,-9,3954,28.52
-85,77,-22,-336,2,3964,28.51
-85,79,-15,-335,-1,3977,28.52
-86,86,-17,-337,6,3960,28.54
-85,79,-14,-337,7,3956,28.53
-89,76,-19,-339,10,3947,28.52
-83,75,-14,-335,5,3958,28.53
-85,77,-13,-340,6,3962,28.54
-85,75,-12,-340,8,3965,28.54
-83,73,-18,-333,16,3945,28.53
-88,71,-18,-334,14,3956,28.55
-90,79,-16,-332,0,3962,28.55
-84,84,-14,-328,1,3949,28.55
-89,81,-14,-336,2,3943,28.54
-84,82,-16,-329,1,3949,28.53
-83,78,-16,-336,5,3945,28.51
-83,77,-16,-331,11,3947,28.52
-86,75,-14,-335,11,3958,28.53
-88,74,-14,-337,10,3962,28.52
-86,74,-15,-334,7,3961,28.55
-85,71,-17,-330,-10,3941,28.50
-87,78,-12,-321,7,3950,28.53
-80,83,-13,-333,-10,3948,28.52
-84,75,-15,-332,-2,3956,28.55
-89,77,-17,-337,13,3953,28.54
-89,77,-19,-334,4,3975,28.54
-88,81,-19,-337,-6,3946,28.54
-90,77,-14,-342,-1,3941,28.56
-93,77,-14,-335,-7,3932,28.56
-85,79,-16,-343,-4,3934,28.54
-90,78,-16,-338,-6,3956,28.53
-85,74,-17,-334,-11,3952,28.53
-83,71,-19,-338,0,3945,28.53
-85,78,-17,-331,1,3953,28.52
-84,76,-18,-336,11,3958,28.51
-88,78,-17,-339,2,3957,28.51
-92,75,-18,-343,-2,3952,28.54
-89,74,-22,-333,4,3953,28.54
-88,78,-17,-337,0,3976,28.55
-87,84,-16,-341,-5,3950,28.56
-86,83,-13,-344,0,3954,28.54
-86,74,-14,-344,1,3949,28.54
-85,76,-16,-349,-5,3949,28.54
-86,78,-17,-334,4,3948,28.52
-90,75,-12,-331,3,3957,28.53
-87,81,-14,-337,1,3960,28.54
-86,74,-13,-340,5,3963,28.55
-86,79,-18,-339,16,3948,28.52
-82,77,-21,-345,11,3934,28.52
-82,80,-16,-337,15,3935,28.53
-85,80,-17,-322,11,3946,28.53
-84,83,-17,-322,9,3964,28.53
-90,75,-15,-329,-2,3958,28.54
-84,76,-15,-338,2,3954,28.52
-90,73,-18,-340,10,3955,28.54
-86,72,-17,-329,-4,3951,28.54
-88,73,-19,-336,4,3952,28.54
-87,75,-20,-333,4,3939,28.55
-88,72,-18,-334,-1,3935,28.55
-93,85,-14,-342,5,3942,28.54
-88,83,-15,-343,0,3944,28.53
-89,79,-15,-341,-3,3980,28.52
-89,78,-21,-334,7,3964,28.52
-81,76,-16,-328,9,3960,28.52
-84,74,-19,-328,13,3962,28.51
-91,71,-16,-332,7,3962,28.52
-86,76,-20,-336,9,3962,28.54
-87,70,-17,-342,2,3963,28.51
-84,73,-17,-336,9,3970,28.53
-84,75,-18,-337,-2,3954,28.55
-84,76,-19,-341,0,3949,28.54
-84,77,-23,-331,-3,3954,28.53
-85,74,-20,-330,9,3958,28.51
-89,72,-19,-321,-1,3960,28.54
-90,68,-14,-324,-6,3944,28.52
-89,80,-13,-326,5,3943,28.52
-88,71,-16,-338,1,3953,28.52
-88,76,-17,-341,4,3947,28.54
-84,75,-23,-341,-2,3946,28.55
-85,79,-20,-336,2,3955,28.53
-89,78,-15,-339,0,3942,28.54
-83,88,-16,-329,4,3934,28.53
-85,141,-11,-304,6,3912,28.54
-82,258,-9,-296,7,3916,28.53
-79,401,-4,-319,13,3930,28.54
-74,420,-9,-345,1,3970,28.54
-69,392,-9,-347,3,3965,28.54
-71,350,-13,-364,7,3965,28.54
-74,297,-12,-353,1,3968,28.54
-80,266,-7,-354,5,3958,28.54
-77,270,-6,-339,5,3938,28.52
-73,326,-10,-320,-5,3907,28.54
-67,433,-6,-306,7,3890,28.54
-59,580,-2,-304,7,3890,28.52
-52,744,-3,-326,6,3912,28.54
-42,872,0,-326,12,3925,28.54
-47,970,11,-295,10,3928,28.54
-52,1044,38,-224,7,3941,28.53
-52,1139,82,-229,9,3921,28.51
-47,1283,114,-243,7,3913,28.53
-42,1445,144,-241,2,3915,28.53
-47,1619,177,-292,1,3894,28.53
-41,1823,179,-384,-11,3875,28.53
-27,2045,158,-439,-7,3892,28.52
-14,2256,121,-532,-16,3864,28.53
0,2484,62,-493,-10,3894,28.53
5,2595,40,-443,2,3927,28.53
6,2648,31,-447,8,3939,28.53
13,2628,25,-474,1,3952,28.55
10,2573,25,-485,-4,3964,28.54
2,2503,23,-495,0,3967,28.55
1,2438,26,-508,10,3959,28.54
-3,2367,21,-515,18,3958,28.54
-6,2282,22,-534,24,3950,28.54
-1,2198,21,-546,12,3963,28.55
-11,2053,6,-603,1,4010,28.56
-23,1711,4,-687,10,4082,28.52
-40,1165,1,-718,23,4112,28.54
-71,574,-6,-710,18,4094,28.52
-88,61,-10,-655,17,4041,28.54
-100,-288,-20,-605,6,3982,28.53
-105,-429,-19,-535,12,3958,28.53
-105,-423,-22,-509,10,3911,28.53
-100,-305,-17,-488,12,3877,28.54
-94,-110,-18,-460,16,3853,28.53
-83,124,-13,-454,2,3843,28.52
-72,400,-7,-454,14,3845,28.54
-61,724,-10,-460,13,3861,28.54
-48,944,-4,-476,8,3875,28.55
-43,1138,0,-485,11,3881,28.53
-44,1341,6,-486,11,3896,28.53
-34,1550,9,-496,9,3879,28.54
-25,1754,14,-495,17,3880,28.54
-14,1954,16,-513,15,3865,28.55
-11,2120,16,-545,15,3880,28.55
-1,2224,21,-567,14,3922,28.53
-5,2279,18,-589,20,3913,28.53
-4,2303,21,-599,14,3916,28.53
-5,2306,20,-614,17,3915,28.52
-7,2291,23,-640,20,3926,28.53
-10,2256,17,-653,20,3949,28.52
-3,2201,18,-661,9,3922,28.53
-2,2147,18,-667,15,3930,28.53
-4,2108,20,-677,5,3928,28.54
-14,2074,21,-682,18,3931,28.53
-16,2052,18,-691,18,3920,28.52
-16,2049,22,-684,22,3903,28.54
-11,2074,25,-675,12,3893,28.55
-7,2127,26,-681,17,3883,28.54
-4,2207,27,-684,20,3885,28.54
-4,2284,29,-673,19,3890,28.54
-8,2309,53,-629,24,3935,28.53
-23,2235,100,-587,39,3968,28.54
-48,2045,174,-520,60,4045,28.54
-80,1696,291,-452,62,4095,28.53
-131,1215,440,-382,54,4148,28.52
-194,668,609,-347,55,4203,28.53
-255,19,810,-241,68,4241,28.53
-328,-766,1053,-171,73,4288,28.53
-412,-1634,1322,-134,89,4323,28.54
-500,-2519,1590,-165,92,4332,28.57
-575,-3413,1860,-161,93,4299,28.55
-651,-4299,2115,-173,107,4308,28.54
-718,-5138,2352,-195,116,4263,28.54
-769,-5827,2562,-249,96,4203,28.54
-811,-6397,2741,-244,83,4155,28.53
-829,-6928,2913,-265,72,4113,28.52
-835,-7395,3068,-303,59,4077,28.53
-851,-7791,3204,-266,71,4108,28.52
-855,-8188,3333,-277,91,4053,28.54
-846,-8626,3469,-300,85,4078,28.55
-840,-8892,3539,-311,42,4096,28.53
-858,-9039,3578,-657,20,4309,28.52
-759,-8090,3378,-1688,284,3827,28.55
-617,-6067,3116,-1821,278,3139,28.54
-484,-3925,2785,-1853,223,2915,28.53
-365,-1829,2453,-1808,145,2849,28.53
-254,139,2130,-1706,49,2924,28.52
-161,1836,1821,-1430,-60,3095,28.54
-98,3112,1559,-988,-137,3450,28.54
-61,3717,1362,-577,-159,3811,28.55
-24,3535,1158,125,-257,4808,28.56
-25,2491,885,207,-383,4670,28.54
-64,1474,610,146,-416,4450,28.54
-85,814,461,-106,-172,4113,28.56
-107,513,451,-191,-66,4048,28.53
-119,288,491,-138,-6,4024,28.56
-135,127,549,-212,20,4001,28.54
-141,58,600,-219,29,3993,28.54
-146,33,652,-217,7,3973,28.52
-156,43,700,-147,14,3966,28.55
-163,6,786,-65,17,3994,28.56
-180,-64,887,-15,32,4000,28.54
-194,-163,1006,4,37,4019,28.52
-217,-295,1149,74,43,4084,28.53
-240,-496,1310,114,68,4120,28.53
-269,-722,1482,85,102,4098,28.54
-294,-852,1638,37,142,4068,28.54
-316,-967,1794,15,213,4052,28.53
-307,-864,1908,-218,262,3809,28.56
-289,-371,1990,-493,262,3622,28.54
-264,132,2010,-485,222,3726,28.55
-253,521,1997,-385,133,3901,28.54
-247,445,1998,-181,77,4104,28.54
-264,158,2020,-149,14,4140,28.54
-275,-177,2061,-111,28,4136,28.54
-284,-398,2099,-308,60,3962,28.54
-284,-303,2104,-478,137,3830,28.52
-276,-58,2095,-540,153,3793,28.51
-258,213,2073,-562,121,3810,28.53
-247,405,2015,-465,-4,3906,28.52
-248,280,1954,-188,-99,4116,28.55
-264,-3,1953,-229,-96,4043,28.52
-264,-46,1953,-416,-37,3877,28.54
-254,163,1935,-482,15,3815,28.52
-240,342,1904,-399,11,3909,28.53
-239,324,1900,-216,2,4037,28.54
-253,115,1931,-116,-18,4108,28.55
-263,-72,2001,-171,50,4018,28.52
-272,-79,2076,-292,103,3911,28.54
-273,66,2138,-331,126,3841,28.54
-271,200,2192,-239,83,3910,28.54
-275,234,2235,-155,-15,3999,28.54
-279,136,2282,-132,-52,4009,28.54
-293,69,2330,-85,-18,4037,28.54
-303,-71,2420,-52,19,4028,28.53
-317,-129,2513,-154,68,3950,28.53
-321,-35,2596,-280,80,3860,28.54
-316,149,2658,-331,41,3895,28.55
-318,204,2684,-271,-24,3992,28.55
-326,81,2691,-223,-60,4033,28.52
-331,-68,2711,-272,-37,3991,28.55
-328,-129,2709,-372,-27,3946,28.53
-323,-130,2700,-455,-21,3905,28.55
-320,-25,2673,-523,-4,3859,28.56
-308,144,2652,-562,-16,3836,28.54
-305,294,2636,-523,-39,3877,28.53
-300,476,2641,-574,-53,3852,28.53
-298,531,2652,-431,-82,4002,28.54
-303,342,2680,-327,-76,4079,28.56
-329,111,2773,-332,-12,4040,28.52
-342,3,2906,-412,47,3931,28.56
-352,143,3083,-577,123,3789,28.55
-369,409,3303,-527,175,3872,28.54
-404,308,3536,-255,158,4128,28.53
-435,35,3769,-365,167,4011,28.53
-465,56,4001,-542,175,3896,28.51
-475,151,4193,-647,158,3885,28.53
-485,204,4340,-723,142,3906,28.56
-502,217,4445,-718,102,3931,28.54
-510,158,4535,-678,59,3954,28.53
-519,211,4661,-694,10,3894,28.55
-534,165,4814,-408,88,4047,28.53
-569,-63,5089,-255,128,4043,28.53
-600,-222,5363,-221,149,4061,28.55
-627,-400,5638,-214,144,4042,28.54
-657,-595,5913,-204,163,4077,28.54
-695,-801,6208,-194,169,4090,28.56
-729,-1035,6504,-207,166,4097,28.55
-743,-1291,6793,-224,155,4101,28.52
-770,-1546,7062,-223,149,4116,28.52
-783,-1822,7314,-249,129,4116,28.52
-783,-2133,7532,-279,113,4106,28.54
-765,-2471,7720,-301,84,4108,28.54
-741,-2808,7884,-306,29,4118,28.55
-738,-3110,8038,-288,-23,4111,28.54
-741,-3378,8178,-271,-62,4108,28.55
-738,-3642,8290,-258,-79,4104,28.56
-732,-3894,8383,-237,-105,4091,28.54
-714,-4123,8465,-187,-136,4066,28.54
-670,-4351,8518,-133,-141,4054,28.53
-599,-4606,8547,-133,-136,4046,28.52
-520,-4841,8538,-149,-147,4043,28.52
-446,-5011,8511,-195,-105,4013,28.55
-390,-5058,8468,-245,-51,3941,28.56
-336,-4970,8404,-294,19,3843,28.56
-292,-4687,8344,-353,74,3784,28.54
-260,-4225,8274,-419,60,3696,28.53
-219,-3658,8177,-454,46,3669,28.56
-178,-3107,8056,-381,10,3707,28.56
-133,-2670,7895,-299,-9,3753,28.54
-108,-2316,7715,-225,-13,3779,28.55
-77,-2013,7532,-146,-32,3805,28.52
-53,-1750,7356,-98,-60,3804,28.54
-2,-1501,7180,-65,-67,3826,28.54
33,-1230,6998,-64,-74,3811,28.54
46,-950,6811,-77,-137,3955,28.54
-15,-683,6624,-12,-131,3859,28.55
-8,-461,6445,27,-174,3843,28.55
-16,-187,6267,27,-220,3795,28.55
1,104,6107,39,-283,3834,28.56
-7,368,5965,82,-289,3838,28.55
1,564,5827,148,-247,3890,28.54
0,683,5731,164,-212,3919,28.55
-7,735,5691,207,-152,3957,28.55
-12,738,5603,216,-135,3985,28.54
-30,640,5488,199,-134,4070,28.54
-38,434,5366,193,-84,4043,28.54
-45,309,5287,190,-37,4002,28.54
-47,250,5230,135,-9,3957,28.56
-60,244,5165,108,3,3966,28.57
-50,209,5080,102,-5,3993,28.54
-51,143,4973,35,-33,3990,28.52
-59,76,4830,-6,-41,4002,28.52
-64,-5,4676,-28,-12,3987,28.52
-76,-50,4516,-12,34,3978,28.52
-63,-65,4380,25,61,3949,28.55
-71,1,4266,39,77,3893,28.54
-70,143,4162,53,93,3878,28.52
-60,300,4070,73,90,3884,28.54
-61,485,3978,75,84,3874,28.54
-72,666,3879,97,74,3870,28.54
-69,855,3782,101,70,3864,28.55
-65,1060,3685,110,69,3864,28.55
-59,1246,3578,118,50,3866,28.53
-46,1435,3467,92,17,3846,28.53
-27,1587,3357,150,-8,3911,28.55
-19,1645,3262,190,-4,3948,28.54
-13,1686,3179,94,-29,3902,28.56
-12,1817,3109,53,-40,3887,28.57
-9,1958,3059,33,-43,3897,28.54
-31,2084,3025,18,-13,3939,28.54
-47,2162,2998,-11,-53,3920,28.54
-46,2196,2968,-33,-40,3959,28.52
-56,2175,2940,-56,-50,3974,28.53
-58,2126,2915,-65,-28,4003,28.53
-77,2045,2903,-63,-16,4014,28.53
-82,1944,2901,-78,-24,4035,28.54
-92,1827,2915,-89,-13,4046,28.54
-102,1681,2926,-104,-20,4059,28.53
-115,1506,2928,-127,-27,4060,28.53
-125,1304,2923,-143,-30,4078,28.54
-141,1090,2921,-131,-15,4078,28.55
-161,866,2929,-130,-7,4083,28.54
-194,648,2965,-113,0,4093,28.54
-253,451,3013,-103,5,4106,28.55
-329,280,3071,-90,8,4088,28.54
-377,121,3126,-84,30,4049,28.56
-397,-3,3177,-82,17,4014,28.55
-388,-103,3223,-71,-14,4010,28.54
-350,-310,3245,95,-37,4136,28.56
-316,-798,3228,267,-1,4231,28.54
-279,-1430,3190,380,0,4321,28.56
-265,-2025,3167,215,-62,4154,28.58
-236,-2186,3180,-10,-5,3902,28.53
-201,-2077,3213,-52,22,3832,28.53
-167,-1926,3244,-10,47,3822,28.54
-116,-1765,3267,-31,44,3823,28.54
-77,-1567,3273,-84,57,3826,28.54
-71,-1294,3283,-136,60,3812,28.54
-85,-981,3278,-140,41,3827,28.54
-84,-666,3273,-103,35,3814,28.54
-60,-392,3287,-65,-7,3826,28.55
-35,-163,3311,-49,-30,3825,28.56
-19,41,3364,-27,-19,3871,28.55
-36,193,3445,2,-33,3945,28.55
-68,276,3556,22,-61,3991,28.57
-105,272,3665,61,-71,4045,28.57
-136,105,3746,130,-16,4130,28.54
-149,-272,3799,242,-9,4220,28.57
-164,-846,3840,351,-56,4303,28.52
-180,-1484,3884,344,-102,4272,28.56
-189,-1947,3952,222,-113,4118,28.55
-171,-2151,4025,81,-49,4021,28.54
-156,-2206,4092,8,-12,3970,28.54
-166,-2238,4118,-10,-31,4020,28.54
-170,-2305,4099,-49,-56,3976,28.54
-152,-2334,4055,-10,-82,3939,28.52
-114,-2291,4029,-46,-75,3858,28.54
-78,-2139,4005,-7,-121,3825,28.54
-17,-1958,3989,-17,-175,3787,28.57
43,-1678,3960,-114,-190,3739,28.54
105,-1333,3926,-176,-210,3759,28.55
141,-909,3874,-266,-177,3718,28.53
159,-394,3828,-301,-130,3757,28.54
55,55,3776,-104,-79,3827,28.52
33,216,3726,66,-47,3996,28.54
16,215,3668,88,-75,3975,28.55
9,175,3631,154,-29,4017,28.54
16,100,3612,203,-22,3996,28.54
6,24,3626,239,-10,3994,28.55
4,-46,3662,250,-7,3984,28.53
0,-131,3691,206,-41,4003,28.54
-9,-296,3704,187,-84,4050,28.55
-7,-462,3693,162,-84,4060,28.55
-21,-581,3656,13,-83,3964,28.57
1,-612,3605,134,6,3966,28.55
16,-692,3586,154,-5,3980,28.53
5,-699,3598,133,13,3968,28.53
13,-669,3601,60,-43,3944,28.54
7,-633,3572,52,-74,3976,28.54
9,-678,3507,16,-106,4017,28.54
4,-749,3409,-6,-112,4016,28.54
5,-818,3295,19,-87,3994,28.54
9,-860,3203,55,-45,3977,28.52
5,-850,3130,55,-29,3929,28.53
6,-796,3072,96,-26,3931,28.55
5,-771,3021,142,-22,3942,28.57
6,-770,2972,127,-33,3975,28.57
4,-783,2908,94,-54,3980,28.56
9,-821,2825,106,-71,3994,28.52
6,-886,2736,105,-65,3984,28.52
-18,-1074,2468,1369,-649,5153,28.52
55,-1694,1610,-6,-81,3140,28.54
-57,-66,1496,-304,-82,3467,28.55
-7,928,1049,-293,4,3377,28.55
-52,1626,865,151,-107,3897,28.56
-19,1688,721,204,-82,4004,28.55
-22,1593,624,142,-99,4055,28.55
-23,1491,528,109,-42,3990,28.54
-34,1404,484,146,-34,4043,28.54
-36,1246,460,199,-1,4069,28.56
-43,971,475,280,8,4121,28.56
-55,611,508,312,47,4145,28.52
-61,234,544,256,37,4145,28.55
-78,-142,568,213,43,4144,28.57
-80,-454,581,188,31,4099,28.57
-89,-671,574,164,24,4038,28.55
-90,-757,581,151,-6,3973,28.53
-86,-751,572,114,-63,3918,28.55
-88,-655,550,50,-98,3880,28.57
-83,-511,510,40,-114,3886,28.54
-87,-374,465,36,-115,3886,28.54
-83,-247,416,-4,-136,3909,28.56
-80,-133,355,-2,-136,3930,28.55
-77,-43,298,31,-127,3935,28.56
-76,26,259,65,-127,3921,28.55
-74,138,228,110,-103,3912,28.56
-68,241,209,136,-99,3899,28.56
-67,357,191,113,-111,3910,28.54
-73,470,165,107,-118,3910,28.54
-73,574,145,72,-113,3897,28.56
-68,696,111,83,-83,3889,28.54
-81,777,81,147,-68,3942,28.53
-70,780,76,166,-56,3984,28.54
-76,745,75,146,-62,3991,28.53
-78,688,66,128,-63,3996,28.53
-81,628,43,104,-69,4002,28.54
-84,554,24,111,-62,4011,28.56
-98,482,12,120,-60,4022,28.56
-113,418,7,155,-52,4010,28.54
-114,391,10,150,-66,3940,28.56
-102,423,5,144,-67,3918,28.56
-86,454,-20,129,-86,3948,28.55
-78,478,-64,91,-96,3934,28.54
-62,537,-137,72,-96,3918,28.54
-36,597,-218,78,-97,3925,28.55
-45,647,-277,130,-52,4014,28.55
-62,771,-308,68,-71,3915,28.54
-66,824,-338,104,-80,3951,28.54
-68,823,-369,93,-58,3966,28.53
-70,816,-398,82,-55,3978,28.54
-74,782,-423,105,-56,3996,28.55
-77,711,-436,116,-56,4006,28.54
-75,647,-442,111,-55,3997,28.54
-82,582,-439,102,-54,4002,28.54
-82,505,-437,122,-63,4025,28.54
-86,368,-434,150,-84,4058,28.53
-82,198,-418,180,-111,4075,28.53
-94,4,-406,129,-149,4045,28.53
-97,-153,-420,56,-182,4039,28.54
-108,-306,-482,28,-231,4047,28.56
-107,-508,-559,76,-265,4075,28.54
-120,-729,-634,55,-277,4081,28.53
-126,-947,-722,42,-277,4087,28.55
-133,-1175,-822,14,-251,4081,28.55
-142,-1369,-942,-2,-184,4060,28.55
-149,-1500,-1039,19,-119,4022,28.54
-164,-1596,-1143,28,-37,3993,28.55
-165,-1601,-1225,4,-12,3957,28.55
-170,-1567,-1317,8,10,3952,28.53
-178,-1529,-1411,17,34,3936,28.54
-183,-1457,-1507,-15,43,3887,28.55
-183,-1324,-1606,-12,66,3871,28.55
-194,-1135,-1714,-18,49,3855,28.53
-188,-899,-1818,1,21,3832,28.56
-192,-616,-1944,-32,-3,3806,28.52
-196,-329,-2080,-42,-19,3795,28.53
-194,-29,-2241,-34,-53,3808,28.53
-194,258,-2415,-6,-67,3806,28.53
-194,556,-2583,44,-99,3804,28.53
-190,873,-2740,96,-104,3794,28.54
-185,1282,-2872,99,-107,3735,28.55
-175,1734,-2989,143,-107,3731,28.54
-164,2180,-3104,165,-113,3737,28.54
-150,2601,-3223,143,-110,3727,28.55
-123,3035,-3348,95,-106,3719,28.57
-105,3452,-3462,117,-85,3753,28.54
-93,3835,-3560,75,-89,3773,28.55
-75,4207,-3651,78,-83,3796,28.57
-52,4551,-3714,93,-64,3797,28.57
-33,4801,-3742,252,-34,3940,28.55
17,4779,-3708,364,-43,4056,28.54
36,4659,-3669,402,-25,4084,28.53
55,4348,-3603,579,14,4189,28.55
46,3759,-3522,458,14,4168,28.57
58,3572,-3475,138,-17,4026,28.56
72,3511,-3453,-6,-44,3997,28.56
80,3475,-3486,-92,-62,3983,28.54
90,3435,-3545,-149,-80,3979,28.53
113,3371,-3651,-195,-101,3982,28.52
134,3312,-3773,-223,-105,3995,28.55
152,3267,-3900,-241,-94,3989,28.54
168,3227,-4039,-262,-113,3988,28.54
181,3176,-4180,-282,-97,3984,28.54
191,3149,-4329,-264,-88,3953,28.55
212,3148,-4445,-244,-73,3936,28.54
238,3198,-4532,-222,-30,3912,28.56
272,3306,-4607,-177,103,3917,28.56
300,3379,-4638,-123,227,3939,28.54
309,3423,-4643,-101,254,3952,28.53
327,3435,-4638,-82,221,3980,28.53
347,3433,-4619,-115,164,3965,28.53
347,3409,-4586,-151,71,3939,28.54
376,3486,-4548,-175,0,3932,28.54
389,3568,-4489,-216,-58,3901,28.56
395,3585,-4408,-187,-74,3996,28.56
331,3417,-4294,31,-15,4376,28.55
309,2015,-4158,1083,188,5309,28.56
251,-682,-4003,428,130,4770,28.52
288,-1286,-3908,-174,-53,4192,28.52
262,-1390,-3934,-464,-55,3949,28.54
229,-1413,-4026,-684,-56,3822,28.53
236,-1358,-4183,-638,-90,3969,28.54
249,-1473,-4376,-588,-38,4040,28.52
235,-1802,-4597,-529,20,4115,28.54
234,-2256,-4829,-394,62,4225,28.56
223,-2769,-5025,-331,97,4224,28.54
206,-3211,-5173,-277,107,4175,28.54
182,-3655,-5260,-191,101,4145,28.54
148,-4074,-5291,-31,64,4202,28.54
106,-4430,-5278,-70,-1,4083,28.54
70,-4608,-5241,-114,-66,3979,28.55
43,-4564,-5195,-258,-141,3834,28.57
20,-4304,-5145,-349,-161,3788,28.55
8,-3963,-5099,-417,-150,3733,28.54
7,-3460,-5041,-480,-135,3677,28.55
0,-2926,-4963,-475,-89,3659,28.53
0,-2320,-4884,-549,-72,3607,28.53
11,-1656,-4794,-607,-64,3589,28.54
23,-1018,-4716,-555,-33,3657,28.54
33,-529,-4638,-449,24,3749,28.54
39,-272,-4576,-328,83,3878,28.55
43,-216,-4511,-192,121,3980,28.58
39,-258,-4419,-103,141,3999,28.57
38,-342,-4284,-14,124,4016,28.56
24,-413,-4114,39,93,3993,28.56
14,-496,-3918,87,78,4014,28.55
0,-596,-3708,104,90,4049,28.55
-17,-792,-3455,113,135,4054,28.54
-27,-948,-3278,82,154,4046,28.53
-47,-1104,-3125,37,178,4051,28.55
-54,-1277,-3012,8,181,4072,28.56
-68,-1470,-2943,-30,158,4090,28.57
-77,-1691,-2911,-70,116,4084,28.55
-83,-1894,-2906,-129,40,4044,28.54
-91,-2013,-2921,-149,-49,4005,28.54
-94,-2066,-2933,-126,-136,3976,28.56
-104,-2088,-2922,-106,-181,3949,28.56
-111,-2086,-2895,-58,-209,3951,28.55
-119,-2083,-2852,-39,-197,3945,28.53
-124,-2058,-2813,-40,-154,3946,28.53
-133,-2065,-2795,-47,-67,3962,28.52
-134,-2125,-2830,-63,53,3994,28.54
-148,-2198,-2887,-10,119,3996,28.54
-152,-2217,-2950,-22,106,3919,28.55
-154,-2082,-2997,-32,35,3824,28.55
-150,-1826,-3048,-17,-41,3792,28.52
-149,-1532,-3098,25,-124,3794,28.55
-150,-1242,-3155,42,-154,3817,28.53
-146,-989,-3234,17,-164,3828,28.54
-143,-742,-3340,3,-122,3810,28.56
-140,-457,-3468,-40,-119,3812,28.55
-152,-164,-3614,-46,-112,3811,28.56
-149,163,-3786,-91,-113,3770,28.55
-136,493,-3971,-88,-115,3790,28.54
-129,757,-4156,-52,-95,3821,28.54
-127,973,-4342,-16,-74,3881,28.55
-126,1125,-4524,6,-40,3885,28.56
-114,1267,-4704,-6,-36,3871,28.55
-94,1384,-4871,60,-60,3940,28.53
-88,1452,-5008,112,-47,3930,28.54
-78,1509,-5111,138,-27,3931,28.54
-74,1549,-5187,168,-13,3932,28.52
-61,1565,-5251,167,-14,3972,28.53
-67,1541,-5293,157,-1,3992,28.54
-57,1515,-5336,120,-13,3999,28.53
-53,1456,-5381,121,-14,4039,28.53
-38,1282,-5414,106,17,4048,28.56
-39,1053,-5435,173,41,4096,28.56
-40,748,-5423,216,59,4141,28.56
-42,396,-5389,233,63,4158,28.55
-53,43,-5341,191,52,4118,28.53
-64,-268,-5294,157,53,4125,28.54
-75,-606,-5258,128,45,4129,28.55
-94,-953,-5233,113,35,4149,28.56
-111,-1242,-5220,47,13,4101,28.55
-127,-1456,-5221,7,-10,4086,28.53
-143,-1613,-5229,-28,-47,4046,28.53
-155,-1696,-5263,-49,-68,3998,28.56
-169,-1669,-5313,-114,-78,3906,28.57
-180,-1500,-5390,-161,-77,3834,28.55
-185,-1214,-5484,-195,-55,3790,28.54
-188,-856,-5590,-205,-31,3756,28.55
-179,-438,-5711,-259,-30,3746,28.55
-177,0,-5861,-281,-54,3734,28.53
-167,437,-6030,-308,-93,3741,28.54
-150,891,-6227,-387,-146,3731,28.55
-145,1334,-6445,-401,-178,3709,28.55
-130,1773,-6646,-347,-199,3781,28.58
-111,2163,-6815,-333,-175,3727,28.54
-80,2593,-6956,-302,-133,3737,28.54
-55,2987,-7064,-263,-87,3750,28.54
-23,3320,-7139,-194,-34,3788,28.55
10,3625,-7197,-225,1,3790,28.52
48,3916,-7241,-247,35,3791,28.52
98,4174,-7270,-174,66,3841,28.51
139,4357,-7269,-138,112,3853,28.53
186,4501,-7254,-135,115,3906,28.52
212,4534,-7227,-33,124,4000,28.52
253,4394,-7178,16,145,4025,28.53
302,4200,-7154,51,102,4130,28.55
312,3957,-7125,49,92,4064,28.55
347,3757,-7085,78,78,4086,28.56
378,3520,-7045,155,71,4139,28.54
378,3216,-6989,216,90,4188,28.54
397,2890,-6923,160,135,4142,28.54
400,2634,-6848,98,177,4092,28.54
409,2456,-6766,63,170,4047,28.53
406,2317,-6684,3,167,4022,28.53
435,2265,-6588,-15,214,4051,28.55
447,2158,-6497,-11,307,4049,28.54
462,2011,-6381,21,348,4102,28.55
455,1776,-6211,157,320,4171,28.56
434,1442,-6019,138,251,4171,28.55
421,1079,-5845,60,199,4149,28.55
402,801,-5700,-8,154,4113,28.53
386,546,-5593,-46,133,4102,28.55
375,364,-5512,-154,125,4032,28.55
367,251,-5465,-225,110,3998,28.57
370,214,-5453,-266,72,3963,28.57
361,208,-5453,-277,32,3971,28.56
371,211,-5477,-307,10,3955,28.54
377,240,-5495,-350,-4,3933,28.55
386,333,-5522,-405,8,3909,28.55
395,394,-5572,-349,-3,3912,28.52
402,485,-5597,-371,9,3868,28.55
410,529,-5618,-307,59,3945,28.55
417,533,-5643,-325,100,3952,28.56
429,637,-5666,-387,136,3851,28.55
432,778,-5646,-289,160,3940,28.56
427,736,-5609,-214,188,4032,28.54
424,622,-5544,-137,182,4086,28.54
412,340,-5471,-51,183,4149,28.54
396,11,-5382,-61,190,4138,28.54
379,-258,-5302,-136,194,4090,28.54
355,-441,-5244,-181,191,4023,28.55
357,-498,-5200,-296,184,3943,28.56
346,-426,-5159,-316,172,3928,28.56
343,-376,-5149,-317,166,3911,28.54
349,-290,-5143,-329,139,3904,28.54
349,-209,-5142,-303,119,3915,28.56
350,-127,-5133,-293,71,3935,28.55
358,-81,-5137,-338,69,3924,28.55
347,-76,-5165,-254,30,4043,28.54
341,-271,-5216,-178,-12,4121,28.55
341,-559,-5278,-184,-91,4128,28.55
327,-890,-5373,-209,-161,4154,28.53
312,-1251,-5481,-183,-229,4183,28.56
301,-1626,-5604,-155,-280,4184,28.55
285,-2044,-5733,-178,-296,4101,28.55
278,-2231,-5833,-257,-231,4015,28.56
266,-2295,-5938,-326,-180,3943,28.56
259,-2260,-6054,-349,-147,3888,28.55
261,-2073,-6185,-440,-119,3777,28.55
280,-1646,-6278,-536,-108,3748,28.54
285,-1209,-6380,-543,-89,3701,28.54
301,-760,-6473,-509,-84,3705,28.54
332,-240,-6564,-566,-88,3655,28.54
353,282,-6638,-560,-53,3666,28.54
374,730,-6686,-506,-1,3745,28.53
399,1123,-6719,-421,39,3769,28.53
421,1404,-6716,-323,119,3845,28.53
441,1537,-6676,-240,142,3907,28.54
461,1620,-6623,-235,129,3927,28.52
472,1674,-6547,-209,139,3956,28.55
468,1667,-6451,-172,157,4003,28.56
463,1532,-6365,-129,154,4076,28.52
463,1411,-6288,-188,155,4016,28.54
467,1370,-6220,-276,162,3929,28.54
475,1466,-6145,-308,105,3899,28.54
479,1533,-6086,-308,60,3919,28.54
487,1568,-6052,-265,27,4010,28.54
491,1430,-6016,-215,19,4106,28.53
486,1102,-5977,-83,-9,4245,28.52
464,605,-5899,-58,-28,4192,28.52
432,224,-5802,-183,-52,4068,28.54
418,16,-5709,-242,-56,4047,28.55
416,-136,-5646,-293,-32,4009,28.55
414,-213,-5603,-323,-1,3987,28.54
413,-279,-5559,-326,46,3967,28.54
400,-300,-5503,-329,64,3948,28.53
394,-243,-5444,-300,101,3918,28.53
385,-231,-5360,-250,109,3970,28.54
385,-172,-5324,-409,154,3924,28.54
388,19,-5324,-487,175,3847,28.55
392,175,-5353,-373,180,3920,28.54
397,185,-5351,-281,178,3920,28.56
388,175,-5311,-175,180,3998,28.56
381,128,-5245,-126,201,4007,28.57
378,-11,-5164,-128,227,3983,28.57
379,-59,-5126,-132,190,4009,28.57
374,-177,-5093,-128,118,4032,28.57
361,-316,-5077,-132,10,4058,28.57
353,-497,-5064,-144,-118,4067,28.55
342,-743,-5074,-164,-246,4090,28.57
337,-864,-5100,-324,-353,3990,28.57
328,-826,-5138,-407,-417,3905,28.59
323,-833,-5195,-389,-438,3945,28.57
327,-779,-5246,-488,-411,3911,28.58
335,-583,-5309,-603,-340,3801,28.56
347,-267,-5349,-649,-264,3744,28.56
357,57,-5391,-615,-182,3769,28.57
372,388,-5435,-572,-104,3729,28.58
394,747,-5443,-468,-23,3814,28.55
395,882,-5394,-294,54,4012,28.54
389,734,-5315,-178,122,4099,28.57
376,464,-5197,-113,124,4095,28.57
358,273,-5049,-146,97,4065,28.56
339,152,-4892,-237,68,4029,28.54
323,-47,-4761,-242,47,4072,28.53
306,-236,-4654,-328,10,4016,28.52
299,-351,-4555,-351,6,3970,28.53
283,-358,-4458,-364,23,3918,28.55
276,-280,-4345,-421,76,3876,28.57
268,-155,-4245,-445,122,3873,28.53
263,-40,-4165,-484,159,3841,28.55
258,95,-4078,-403,195,3914,28.54
256,172,-3974,-402,208,3914,28.53
253,171,-3867,-276,213,4013,28.54
238,67,-3762,-310,184,3970,28.54
225,69,-3645,-353,141,3941,28.54
222,90,-3543,-412,92,3939,28.53
216,108,-3474,-429,53,3936,28.52
203,103,-3412,-403,19,3946,28.55
200,62,-3358,-340,-8,3960,28.53
195,53,-3299,-382,-45,3912,28.56
192,144,-3245,-452,-65,3883,28.56
194,271,-3202,-482,-54,3896,28.57
194,362,-3151,-480,-56,3901,28.55
194,428,-3093,-447,-72,3913,28.54
182,479,-3013,-388,-120,3929,28.55
167,451,-2884,-310,-160,3994,28.56
160,345,-2778,-308,-148,4003,28.55
155,225,-2689,-347,-106,3983,28.56
146,179,-2614,-418,-68,3931,28.56
140,251,-2526,-506,-26,3875,28.53
131,378,-2445,-481,8,3900,28.56
124,445,-2367,-396,41,3941,28.57
121,492,-2305,-343,61,3953,28.57
112,485,-2251,-297,89,3974,28.58
115,437,-2208,-290,110,3962,28.55
114,420,-2174,-305,109,3959,28.55
107,454,-2140,-384,86,3899,28.54
102,589,-2115,-446,67,3898,28.55
104,745,-2113,-472,47,3889,28.56
100,924,-2120,-486,61,3876,28.57
97,1099,-2128,-470,55,3918,28.54
101,1178,-2148,-321,33,3981,28.55
108,1155,-2160,-343,61,3930,28.55
111,1102,-2155,-225,76,4010,28.56
122,934,-2126,-171,110,4052,28.53
124,750,-2082,-184,120,4040,28.54
118,556,-2024,-163,80,4053,28.56
109,328,-1959,-156,35,4040,28.54
106,113,-1888,-172,-25,4034,28.56
99,-116,-1808,-184,-54,4046,28.56
88,-329,-1730,-247,-61,4019,28.54
76,-487,-1658,-332,-63,3975,28.54
73,-506,-1584,-376,-69,3955,28.55
67,-503,-1520,-358,-36,3951,28.55
62,-453,-1465,-376,8,3935,28.55
56,-381,-1424,-376,27,3929,28.54
48,-287,-1399,-397,62,3901,28.54
44,-148,-1379,-338,83,3912,28.56
42,-23,-1362,-351,129,3920,28.55
43,80,-1354,-349,157,3906,28.54
42,192,-1352,-356,192,3906,28.55
42,271,-1340,-310,217,3883,28.53
44,317,-1321,-253,208,3937,28.54
39,299,-1288,-219,211,3968,28.56
31,270,-1250,-259,194,3962,28.55
33,263,-1204,-255,147,3969,28.55
28,242,-1141,-240,25,3966,28.56
14,171,-1057,-201,-120,4011,28.57
10,28,-978,-175,-254,4019,28.58
-2,-170,-878,-149,-400,4057,28.59
-16,-456,-782,-195,-392,4077,28.55
-17,-786,-696,-236,-272,4078,28.54
-20,-1126,-631,-223,-161,4069,28.54
-21,-1424,-582,-175,-60,4067,28.54
-12,-1658,-550,-186,31,4024,28.56
-22,-1717,-539,-331,21,3966,28.55
-33,-1350,-554,-742,-24,3689,28.57
-18,-669,-705,-917,-65,3605,28.57
0,10,-942,-752,-75,3678,28.56
15,425,-1120,-338,-57,3893,28.53
18,419,-1184,0,-32,4079,28.56
8,242,-1160,11,-12,4090,28.55
11,73,-1147,-131,13,4035,28.56
16,12,-1189,-268,45,3967,28.57
17,52,-1235,-323,89,3931,28.58
16,124,-1271,-388,114,3907,28.56
20,187,-1294,-369,118,3928,28.57
21,174,-1295,-347,132,3963,28.56
15,140,-1271,-388,144,3954,28.55
15,144,-1242,-438,165,3927,28.54
15,176,-1212,-440,171,3937,28.55
17,190,-1177,-462,171,3920,28.55
16,221,-1133,-437,157,3934,28.57
3,174,-1087,-388,120,3956,28.57
3,112,-1036,-395,104,3968,28.56
3,40,-1001,-354,96,3969,28.54
1,-58,-954,-341,91,3986,28.57
-4,-136,-932,-394,90,3962,28.56
-1,-121,-925,-459,92,3907,28.54
-5,-24,-947,-468,59,3876,28.53
1,82,-957,-384,-6,3918,28.55
-9,115,-948,-335,-58,3960,28.55
-3,56,-932,-328,-60,4000,28.54
3,-52,-924,-375,-47,3994,28.54
3,-84,-940,-447,-43,3919,28.55
5,-82,-976,-397,-35,3913,28.54
8,13,-1020,-495,-86,3855,28.55
7,226,-1063,-493,-147,3878,28.55
4,277,-1101,-381,-115,3972,28.56
7,180,-1105,-366,-78,3982,28.57
12,88,-1100,-397,-28,3954,28.55
8,25,-1103,-365,20,3981,28.54
16,41,-1131,-450,21,3891,28.54
12,123,-1174,-446,10,3911,28.55
12,179,-1214,-389,21,3949,28.53
14,132,-1243,-360,11,3973,28.54
20,98,-1260,-387,22,3946,28.53
28,107,-1276,-396,31,3932,28.53
24,110,-1283,-385,22,3936,28.57
26,115,-1286,-336,24,3954,28.56
23,66,-1285,-256,16,3981,28.55
33,29,-1285,-247,8,3984,28.55
38,-17,-1295,-246,17,3960,28.59
46,-52,-1313,-213,18,3979,28.57
46,-56,-1329,-281,24,3932,28.55
39,44,-1336,-375,34,3901,28.55
31,151,-1338,-367,53,3932,28.54
21,182,-1297,-320,66,3967,28.56
14,130,-1221,-273,76,3999,28.57
11,85,-1128,-335,87,3961,28.54
7,52,-1049,-321,91,3963,28.55
0,16,-980,-289,67,3988,28.55
-3,-31,-903,-264,44,3972,28.55
-6,-42,-825,-306,66,3932,28.54
-8,5,-763,-337,79,3918,28.56
-26,79,-709,-292,97,3956,28.56
-25,51,-646,-183,133,3990,28.53
-35,5,-573,-170,148,3976,28.55
-37,27,-514,-216,108,3941,28.56
-47,76,-474,-224,93,3927,28.56
-54,109,-449,-143,42,3963,28.59
-48,140,-427,-135,53,3986,28.54
-51,101,-410,-130,27,3964,28.56
-59,119,-404,-183,28,3942,28.57
-58,124,-378,-174,27,3972,28.54
-58,99,-342,-179,29,3982,28.54
-60,61,-292,-177,27,3979,28.55
-54,18,-240,-215,24,3981,28.54
-54,22,-203,-269,36,3948,28.53
-58,45,-179,-286,38,3956,28.56
-68,73,-140,-285,54,3948,28.55
-77,113,-95,-288,58,3944,28.54
-91,174,-39,-300,48,3919,28.54
-99,260,-7,-323,30,3921,28.54
-105,333,-2,-330,37,3915,28.57
-101,391,4,-348,30,3939,28.55
-103,413,15,-352,38,3953,28.55
-95,422,53,-354,39,3946,28.54
-103,456,115,-367,40,3941,28.55
-100,487,180,-370,35,3957,28.54
-107,511,250,-366,16,3955,28.55
-113,502,325,-350,10,3964,28.56
-124,449,391,-349,1,3968,28.56
-128,389,449,-351,25,3971,28.57
-133,344,504,-352,42,3956,28.55
-131,308,548,-333,52,3976,28.57
-137,282,584,-321,64,3947,28.58
-141,278,635,-286,83,3957,28.57
-151,290,685,-257,96,3965,28.57
-158,265,738,-225,108,3973,28.57
-165,252,782,-303,62,3951,28.56
-167,267,804,-339,43,3962,28.57
-162,290,833,-332,47,3948,28.58
-170,352,889,-301,51,3936,28.56
-179,412,986,-310,57,3955,28.57
-187,428,1092,-337,18,3951,28.59
-187,404,1178,-393,-65,3960,28.57
-188,391,1248,-473,-147,3935,28.57
-187,399,1290,-510,-175,3937,28.58
-190,413,1343,-442,-164,3959,28.58
-200,369,1407,-424,-160,3952,28.57
-215,321,1474,-416,-138,3980,28.54
-224,261,1549,-425,-103,3956,28.55
-235,223,1624,-426,-84,3955,28.54
-249,163,1707,-399,-85,3968,28.54
-258,67,1803,-402,-75,3964,28.55
-279,-19,1912,-366,-82,3993,28.55
-293,-118,2006,-359,-85,3985,28.54
-312,-227,2107,-360,-63,3984,28.55
-324,-317,2207,-384,-29,3968,28.54
-321,-380,2302,-367,15,3978,28.57
-312,-413,2391,-405,58,3953,28.58
-317,-355,2466,-439,148,3912,28.57
-316,-257,2524,-399,191,3893,28.57
-321,-94,2584,-431,254,3859,28.57
-331,86,2638,-397,274,3887,28.56
-345,256,2691,-386,272,3901,28.55
-349,392,2752,-345,253,3930,28.57
-345,452,2807,-314,203,3959,28.57
-355,536,2879,-339,182,3912,28.57
-368,659,2958,-306,147,3925,28.55
-377,705,3042,-306,131,3938,28.56
-385,830,3123,-360,114,3905,28.57
-392,920,3202,-255,61,3960,28.57
-398,844,3311,-145,10,4054,28.55
-411,692,3427,-199,-45,4023,28.57
-418,588,3521,-332,-69,3946,28.57
-422,640,3613,-349,-83,3919,28.57
-431,716,3702,-372,-103,3907,28.57
-437,848,3772,-438,-114,3873,28.57
-437,1000,3825,-415,-144,3933,28.57
-451,1005,3859,-357,-194,3971,28.56
-453,900,3873,-345,-224,4001,28.54
-464,735,3868,-378,-233,3978,28.54
-472,600,3855,-400,-205,3975,28.55
-475,529,3853,-419,-186,3942,28.57
-478,481,3850,-437,-159,3953,28.57
-483,486,3833,-445,-130,3955,28.57
-485,478,3814,-399,-120,3951,28.57
-488,445,3802,-342,-124,3987,28.57
-485,357,3792,-311,-133,3998,28.59
-486,267,3772,-342,-141,3988,28.58
-491,215,3749,-345,-116,3981,28.58
-497,166,3738,-342,-89,3977,28.57
-485,75,3717,-252,-96,4008,28.57
-502,-37,3709,-206,-27,4030,28.57
-503,-128,3713,-220,-12,3987,28.57
-504,-332,3707,-159,35,4029,28.58
-513,-489,3681,-189,65,4019,28.57
-502,-538,3653,-221,77,3997,28.54
-501,-550,3623,-224,117,3992,28.54
-498,-550,3597,-167,131,4013,28.57
-497,-628,3566,-129,136,4002,28.55
-494,-707,3546,-92,151,4010,28.56
-488,-723,3511,-152,156,3972,28.57
-472,-650,3474,-174,141,3924,28.59
-466,-580,3418,-106,111,3969,28.57
-454,-578,3338,-150,49,3909,28.59
-440,-391,3247,-344,-25,3878,28.58
-414,-149,3135,-403,-64,3866,28.56
-389,56,2955,-363,-67,3910,28.56
-367,209,2815,-341,-53,3898,28.57
-349,367,2682,-331,-10,3891,28.57
-332,572,2587,-351,10,3879,28.55
-321,734,2481,-349,-10,3911,28.53
-308,865,2378,-357,-12,3926,28.56
-296,985,2277,-353,23,3940,28.56
-285,1102,2203,-323,65,3935,28.57
-278,1184,2160,-304,85,3934,28.56
-271,1247,2135,-306,109,3955,28.57
-268,1275,2116,-318,134,3931,28.58
-275,1334,2110,-331,144,3942,28.58
-276,1383,2118,-290,170,3939,28.57
-279,1400,2141,-265,169,3957,28.56
-288,1380,2176,-234,152,3979,28.57
-301,1264,2228,-185,132,4025,28.57
-314,1090,2288,-211,110,4031,28.58
-338,923,2361,-202,103,4033,28.57
-356,705,2449,-180,110,4055,28.58
-381,472,2549,-142,133,4055,28.59
-406,225,2671,-94,148,4072,28.57
-434,-50,2824,-57,180,4094,28.57
-464,-354,2979,-60,204,4114,28.59
-493,-675,3116,-40,242,4109,28.57
-522,-999,3236,2,258,4114,28.56
-538,-1364,3364,36,259,4104,28.57
-557,-1767,3481,25,261,4123,28.57
-575,-2145,3580,-42,238,4125,28.57
-590,-2460,3656,-100,240,4074,28.56
-594,-2684,3700,-203,213,4040,28.56
-582,-2742,3720,-321,152,3982,28.55
-524,-2651,3707,-660,99,3888,28.58
-459,-1825,3585,-1089,38,3526,28.57
-412,-845,3351,-1112,9,3512,28.55
-385,91,3092,-1045,-24,3540,28.56
-361,940,2848,-969,-48,3583,28.57
-331,1568,2620,-517,-33,3920,28.57
-290,1454,2516,-167,-18,4038,28.57
-302,1203,2512,-107,-5,4072,28.56
-316,891,2551,-138,-28,4079,28.57
-331,589,2588,-287,-73,4041,28.56
-337,388,2597,-442,-98,3943,28.57
-332,306,2596,-465,-92,3979,28.59
-342,170,2603,-370,-101,4027,28.59
-356,-16,2627,-367,-99,4024,28.56
-362,-176,2647,-421,-131,4007,28.58
-368,-238,2657,-496,-156,3963,28.55
-370,-288,2657,-486,-152,3960,28.55
-374,-365,2657,-487,-138,3963,28.57
-373,-406,2643,-465,-109,3937,28.56
-367,-422,2636,-513,-106,3934,28.54
-363,-379,2618,-559,-53,3916,28.55
-351,-226,2609,-599,-17,3865,28.54
-343,-11,2595,-588,0,3852,28.55
-338,209,2578,-534,-5,3882,28.54
-329,314,2604,-371,7,3951,28.56
-335,333,2666,-316,25,3951,28.56
-343,350,2757,-261,63,3986,28.56
-353,327,2868,-223,116,4017,28.58
-373,270,2997,-164,163,4011,28.59
-390,176,3141,-120,202,3991,28.57
-409,58,3278,-91,230,3999,28.56
-429,-106,3412,-86,265,4058,28.56
-445,-259,3518,-122,254,4026,28.57
-454,-296,3612,-237,241,3975,28.57
-456,-301,3676,-318,236,3949,28.56
-456,-305,3700,-346,221,3940,28.54
-444,-202,3686,-488,185,3852,28.56
-432,7,3610,-542,144,3827,28.57
-417,162,3514,-536,86,3889,28.59
-404,204,3384,-470,29,3940,28.60
-393,217,3251,-532,-37,3927,28.57
-379,215,3096,-601,-100,3922,28.58
-359,257,2950,-653,-132,3898,28.56
-350,293,2809,-615,-136,3924,28.55
-344,290,2725,-558,-125,3916,28.57
-331,269,2678,-459,-100,3955,28.58
-331,243,2657,-516,-65,3917,28.57
-326,382,2632,-607,-22,3830,28.57
-312,599,2606,-486,32,3891,28.57
-313,606,2624,-216,81,4043,28.56
-332,346,2696,-43,112,4100,28.57
-358,40,2806,-33,120,4085,28.58
-384,-266,2955,-196,143,4009,28.54
-392,-264,3034,-332,178,3927,28.54
-393,-194,3095,-306,199,3933,28.56
-388,-91,3136,-394,206,3882,28.56
-384,59,3159,-380,181,3900,28.56
-383,121,3178,-356,120,3953,28.55
-385,152,3192,-321,77,3959,28.55
-386,119,3221,-332,47,3941,28.55
-384,163,3237,-413,33,3898,28.57
-380,202,3226,-408,10,3950,28.57
-385,156,3195,-378,-10,3989,28.56
-381,71,3149,-438,-26,3947,28.56
-372,62,3087,-335,10,3991,28.56
-375,-31,3047,-364,-7,3947,28.56
-363,4,2992,-487,-20,3871,28.57
-358,138,2909,-419,-57,3938,28.58
-352,65,2851,-346,-96,3994,28.58
-347,53,2783,-502,-88,3903,28.55
-339,120,2709,-463,-73,3935,28.55
-325,121,2652,-404,-56,3960,28.57
-328,30,2628,-388,-18,3998,28.59
-327,19,2597,-481,15,3910,28.58
-327,38,2568,-390,38,3970,28.57
-320,17,2548,-417,72,3935,28.57
-315,46,2517,-434,112,3908,28.54
-314,81,2470,-397,132,3945,28.53
-308,49,2424,-371,153,3965,28.56
-302,52,2374,-429,144,3918,28.56
-295,93,2340,-398,126,3937,28.55
-290,85,2301,-395,136,3942,28.54
-291,85,2267,-411,123,3925,28.55
-288,153,2213,-483,129,3891,28.57
-274,259,2131,-467,138,3905,28.57
-263,296,2046,-374,135,3970,28.59
-257,241,1996,-303,113,3994,28.57
-256,170,1974,-338,106,3984,28.55
-262,121,1949,-363,114,3956,28.57
-258,92,1920,-414,115,3931,28.56
-254,96,1876,-484,104,3927,28.57
-244,145,1795,-555,79,3884,28.56
-229,259,1663,-591,43,3901,28.56
-220,324,1544,-610,14,3916,28.57
-204,313,1412,-642,-28,3952,28.58
-196,219,1274,-609,-62,3991,28.59
-192,122,1144,-692,-20,3935,28.56
-178,121,1001,-768,-12,3901,28.57
-166,181,839,-750,-25,3897,28.56
-145,227,681,-744,-27,3893,28.59
-131,292,523,-722,-25,3903,28.61
-114,330,382,-679,-13,3915,28.59
-102,299,267,-645,-6,3959,28.60
-100,225,164,-626,-7,3975,28.60
-94,152,65,-620,2,3959,28.57
-93,0,5,-493,11,3996,28.60
-102,-205,-16,-433,3,4022,28.59
-102,-365,-26,-391,0,3992,28.58
-103,-457,-24,-386,-8,4005,28.57
-109,-527,-19,-377,5,3983,28.59
-120,-585,-31,-378,1,3992,28.58
-124,-668,-41,-381,16,4010,28.58
-126,-785,-47,-399,38,3993,28.57
-123,-870,-52,-442,99,3983,28.56
-117,-911,-79,-482,157,3985,28.59
-116,-977,-119,-483,189,3990,28.58
-117,-1047,-172,-493,194,3983,28.58
-121,-1132,-223,-495,191,3988,28.57
-115,-1213,-271,-478,178,3996,28.55
-119,-1305,-326,-459,153,4009,28.57
-120,-1409,-376,-424,110,3993,28.57
-121,-1519,-419,-416,92,4005,28.57
-120,-1673,-482,-465,72,4041,28.58
-127,-1950,-579,-545,31,4143,28.56
-133,-2384,-736,-654,36,4187,28.58
-135,-2847,-928,-700,65,4154,28.59
-145,-3188,-1101,-660,84,4048,28.58
-147,-3347,-1191,-590,64,3940,28.59
-147,-3304,-1223,-491,4,3868,28.58
-145,-3140,-1208,-345,-32,3821,28.59
-145,-2923,-1157,-192,-61,3847,28.57
-138,-2706,-1104,-75,-107,3859,28.56
-137,-2492,-1034,25,-130,3867,28.57
-136,-2200,-931,114,-106,3853,28.57
-135,-1933,-836,192,-90,3838,28.58
-126,-1669,-729,222,-56,3835,28.56
-118,-1377,-634,241,-42,3818,28.55
-111,-1071,-542,200,-12,3811,28.57
-103,-762,-465,176,6,3793,28.56
-96,-408,-392,153,25,3753,28.58
-79,14,-328,117,31,3727,28.59
-64,488,-270,128,42,3713,28.58
-49,1006,-206,112,85,3685,28.59
-27,1508,-169,-8,210,3704,28.59
-11,1912,-214,-210,366,3782,28.60
5,2216,-333,-371,519,3778,28.59
28,2556,-458,-429,578,3760,28.60
53,2969,-535,-385,538,3723,28.60
73,3404,-550,-322,425,3731,28.59
79,3807,-524,-248,299,3781,28.59
87,4053,-488,-152,152,3881,28.58
93,4143,-447,-126,40,3963,28.59
96,4123,-414,-154,-53,4009,28.58
96,4027,-405,-212,-161,4031,28.59
95,3885,-438,-266,-227,4035,28.59
90,3716,-484,-312,-257,4052,28.59
101,3479,-538,-320,-303,4103,28.57
99,3228,-569,-252,-343,4257,28.58
91,2570,-584,63,-364,4502,28.59
41,1658,-504,143,-340,4466,28.59
-12,856,-359,-46,-270,4281,28.57
-53,347,-236,-245,-190,4108,28.56
-77,88,-144,-352,-107,4017,28.61
-89,-43,-92,-393,-63,3979,28.60
-89,-87,-67,-402,-9,3943,28.58
-90,-69,-55,-383,9,3936,28.58
-90,-6,-51,-369,33,3928,28.58
-83,79,-51,-354,37,3905,28.58
-77,158,-60,-356,33,3916,28.58
-73,219,-73,-342,20,3918,28.57
-71,246,-88,-344,-12,3939,28.58
-71,248,-112,-368,-15,3942,28.60
-69,251,-138,-367,-46,3951,28.61
-68,250,-161,-382,-108,3957,28.60
-71,225,-186,-397,-164,3960,28.60
-68,151,-194,-408,-175,3978,28.59
-64,44,-204,-405,-169,3975,28.59
-70,-75,-201,-410,-147,3986,28.58
-77,-187,-182,-386,-128,3985,28.57
-85,-277,-161,-374,-118,3976,28.58
-92,-304,-133,-344,-129,3952,28.56
-97,-279,-102,-302,-99,3945,28.57
-97,-249,-77,-314,-64,3940,28.58
-93,-226,-75,-390,-33,3937,28.59
-91,-207,-112,-464,-21,3938,28.60
-86,-178,-175,-506,-15,3933,28.59
-76,-132,-247,-495,-22,3911,28.58
-71,-60,-315,-465,-14,3915,28.57
-64,16,-354,-366,2,3935,28.56
-57,82,-357,-303,11,3923,28.57
-53,140,-342,-259,16,3927,28.57
-60,191,-308,-238,30,3946,28.57
-56,219,-269,-233,26,3950,28.55
-67,201,-216,-204,16,3994,28.57
-74,111,-140,-186,34,4029,28.56
-91,-28,-65,-265,16,4010,28.59
-96,-123,-40,-327,13,3971,28.59
-98,-187,-30,-348,9,3953,28.60
-102,-224,-24,-342,14,3946,28.57
-100,-236,-24,-325,24,3939,28.59
-100,-204,-28,-310,19,3927,28.59
-99,-134,-22,-296,8,3916,28.58
-92,-31,-20,-304,25,3913,28.58
-89,90,-13,-302,12,3907,28.57
-78,212,-9,-302,12,3901,28.57
-75,325,-7,-315,10,3903,28.59
-74,399,-10,-326,15,3935,28.57
-65,434,-7,-338,7,3959,28.56
-66,442,-12,-336,0,3955,28.56
-66,431,-14,-343,6,3964,28.56
-68,409,-10,-354,13,3965,28.55
-62,378,-15,-357,8,3969,28.58
-67,335,-18,-363,12,3983,28.57
-73,276,-19,-370,18,3980,28.58
-78,221,-18,-358,17,3973,28.58
-75,190,-16,-354,11,3973,28.57
-80,208,-12,-341,11,3953,28.57
-77,261,-14,-330,9,3932,28.58
-81,328,-13,-329,4,3919,28.59
-80,399,-11,-323,17,3926,28.58
-72,475,-8,-326,5,3916,28.58
-67,537,-11,-338,3,3933,28.60
-70,571,-13,-364,8,3960,28.59
-73,541,-10,-381,13,3977,28.58
-74,484,-9,-386,11,3981,28.58
-71,429,-10,-385,20,3973,28.57
-72,397,-15,-383,8,3976,28.58
-77,352,-14,-388,21,3984,28.59
-77,270,-12,-394,14,3993,28.57
-82,146,-17,-409,14,3987,28.58
-91,-13,-16,-416,23,4007,28.59
-95,-186,-21,-405,15,4006,28.58
-97,-331,-25,-400,18,3985,28.56
-98,-406,-25,-382,10,3956,28.58
-105,-387,-22,-348,10,3922,28.58
-97,-258,-21,-309,12,3880,28.60
-95,-74,-15,-301,6,3850,28.59
-86,134,-18,-301,1,3862,28.58
-81,298,-15,-325,6,3886,28.59
-79,389,-9,-348,14,3916,28.56
-77,399,-10,-369,9,3958,28.58
-83,339,-11,-382,8,3983,28.57
-79,223,-13,-406,9,4014,28.59
-82,68,-18,-404,7,4011,28.58
-88,-105,-21,-409,11,4025,28.59
-92,-282,-28,-410,9,4011,28.56
-101,-400,-25,-367,9,3988,28.58
-106,-452,-27,-361,5,3964,28.57
-110,-453,-29,-353,8,3963,28.58
-107,-443,-26,-346,10,3953,28.60
-106,-398,-24,-333,17,3919,28.57
-104,-301,-24,-318,15,3894,28.58
-98,-157,-23,-297,5,3871,28.57
-90,19,-18,-295,19,3880,28.58
-82,194,-15,-302,18,3889,28.59
-71,345,-11,-321,25,3910,28.57
-69,438,-10,-330,15,3946,28.59
-66,475,-13,-341,15,3949,28.57
-67,482,-10,-354,14,3961,28.59
-73,455,-10,-362,23,3966,28.58
-72,381,-12,-379,22,3982,28.60
-78,277,-15,-391,15,4006,28.59
-85,140,-12,-403,15,4018,28.59
-94,1,-18,-398,23,4012,28.59
-92,-123,-20,-384,18,3996,28.58
-94,-209,-21,-384,16,3976,28.56
-91,-262,-23,-374,19,3964,28.57
-96,-280,-20,-363,8,3956,28.57
-96,-276,-23,-347,11,3952,28.58
-96,-232,-23,-327,7,3929,28.59
-93,-149,-16,-312,4,3903,28.58
-86,-20,-15,-322,15,3904,28.59
-82,128,-17,-314,11,3904,28.60
-72,265,-11,-313,10,3901,28.58
-72,392,-12,-319,-1,3918,28.59
-72,499,-6,-319,10,3920,28.58
-73,586,-12,-340,10,3933,28.59
-70,633,-17,-351,10,3969,28.57
-74,584,-17,-381,6,4002,28.59
-80,435,-13,-414,18,4039,28.60
-79,214,-15,-424,27,4049,28.58
-89,-24,-16,-427,17,4034,28.56
-97,-215,-22,-393,18,4021,28.57
-99,-318,-23,-363,9,3981,28.57
-105,-320,-22,-347,8,3938,28.58
-101,-257,-21,-326,9,3922,28.59
-95,-149,-18,-310,0,3891,28.59
-93,-7,-20,-309,-1,3869,28.58
-82,159,-16,-299,6,3893,28.59
-81,321,-13,-297,8,3894,28.58
-74,482,-7,-312,9,3890,28.59
-69,600,-7,-346,10,3933,28.57
-68,633,-9,-374,14,3955,28.57
-72,568,-7,-406,19,3971,28.59
-71,449,-10,-416,14,3989,28.59
-76,302,-15,-423,6,3996,28.60
-86,153,-18,-412,19,3985,28.59
-86,21,-17,-413,11,3974,28.58
-91,-90,-24,-402,17,3974,28.59
-93,-163,-22,-384,27,3970,28.58
-94,-183,-19,-366,23,3949,28.59
-90,-161,-20,-360,16,3931,28.59
-89,-67,-17,-345,13,3903,28.60
-87,41,-18,-332,12,3924,28.62
-82,155,-18,-330,9,3925,28.61
-80,259,-15,-344,11,3913,28.58
-74,337,-14,-356,13,3924,28.55
-75,393,-13,-356,14,3939,28.57
-73,449,-11,-357,18,3952,28.57
-68,497,-13,-348,13,3924,28.58
-71,569,-6,-340,11,3914,28.59
-63,661,-6,-355,6,3925,28.60
-58,755,-5,-341,5,3929,28.59
-56,857,-1,-341,5,3916,28.58
-51,940,0,-381,1,3932,28.57
-54,933,-1,-416,10,3978,28.57
-61,806,-7,-447,9,4004,28.56
-67,612,-9,-459,15,4005,28.55
-73,399,-13,-457,19,4004,28.58
-80,189,-13,-452,16,4007,28.59
-90,-3,-14,-450,11,4015,28.59
-95,-159,-14,-430,12,3985,28.57
-103,-263,-14,-416,9,3974,28.59
-102,-311,-14,-388,-22,3946,28.57
-99,-310,-3,-340,-85,3935,28.58
-96,-305,21,-310,-130,3970,28.57
-103,-311,42,-320,-140,3971,28.59
-104,-329,63,-373,-75,3956,28.58
-108,-335,72,-390,-13,3985,28.57
-111,-393,55,-421,47,3957,28.57
-113,-426,48,-433,55,3956,28.59
-116,-448,45,-406,37,3958,28.58
-117,-466,41,-373,36,3960,28.59
-113,-455,44,-376,25,3940,28.59
-107,-445,36,-384,40,3951,28.61
-105,-413,24,-389,61,3950,28.60
-100,-367,13,-371,65,3936,28.61
-96,-316,13,-353,35,3945,28.58
-94,-264,13,-356,14,3949,28.59
-96,-252,9,-378,21,3965,28.58
-97,-277,-9,-399,53,3985,28.58
-99,-354,-25,-401,45,4001,28.58
-106,-443,-19,-388,14,3990,28.58
-112,-514,-23,-358,0,3994,28.58
-123,-561,-16,-352,26,3978,28.58
-129,-603,-17,-362,66,4001,28.59
-134,-667,-17,-382,64,3978,28.59
-128,-721,-29,-356,12,3959,28.59
-122,-719,-34,-330,18,3949,28.59
-122,-687,-35,-324,8,3942,28.58
-121,-656,-32,-331,16,3958,28.59
-116,-668,-29,-319,5,3993,28.57
-119,-797,5,-215,33,4086,28.58
-139,-1090,67,-135,60,4171,28.58
-165,-1529,164,-97,68,4238,28.58
-199,-2047,276,-84,62,4267,28.57
-220,-2609,397,-68,68,4280,28.57
-253,-3171,528,-100,94,4237,28.57
-275,-3664,687,-99,43,4246,28.57
-304,-4215,820,-90,66,4257,28.58
-330,-4745,929,-116,46,4254,28.57
-383,-5187,1021,-179,-4,4298,28.56
-466,-5427,1095,-275,-44,4226,28.58
-531,-5602,1155,-238,-42,4181,28.60
-567,-5804,1201,-193,-48,4129,28.61
-599,-5954,1224,-129,-62,4109,28.59
-612,-6078,1236,-101,-76,4075,28.57
-613,-6234,1234,-113,-76,4002,28.58
-600,-6277,1218,-134,-54,3923,28.56
-575,-6147,1178,-149,-30,3827,28.57
-530,-5996,1122,-185,-27,3726,28.58
-481,-5627,1041,-210,-29,3631,28.59
-424,-5117,932,-223,-26,3588,28.60
-380,-4503,794,-224,-20,3551,28.60
-339,-3848,619,-126,-17,3562,28.60
-297,-3194,421,-63,-37,3536,28.58
-256,-2510,229,-10,-45,3553,28.59
-211,-1852,40,42,-32,3579,28.61
-172,-1209,-132,56,5,3594,28.61
-140,-556,-255,29,-50,3620,28.60
-108,13,-350,47,-59,3662,28.58
-77,439,-428,104,-24,3727,28.58
-50,708,-467,185,60,3835,28.58
-38,806,-466,292,75,3971,28.58
-42,780,-429,323,46,4042,28.56
-61,690,-376,306,18,4039,28.57
-71,598,-329,252,-20,4018,28.57
-85,522,-284,212,-38,3993,28.57
-87,454,-242,217,-45,3993,28.58
-92,380,-212,235,-61,4025,28.59
-101,272,-172,232,-79,4060,28.58
-105,134,-131,215,-68,4082,28.60
-117,-28,-100,194,-32,4057,28.59
-128,-164,-71,189,-18,4017,28.60
-130,-274,-48,201,-5,3992,28.57
-124,-349,-26,207,-20,3954,28.59
-114,-404,-2,197,-22,3950,28.61
-110,-421,10,192,-19,3949,28.61
-105,-405,18,178,-20,3954,28.59
-111,-343,15,146,-22,3935,28.58
-117,-241,9,146,-29,3914,28.56
-109,-125,-12,122,-32,3889,28.57
-99,-24,-36,106,-43,3876,28.57
-79,65,-61,121,-40,3873,28.57
-71,117,-75,135,-33,3912,28.59
-61,152,-81,157,-17,3916,28.57
-55,171,-90,174,-11,3948,28.57
-53,192,-90,188,-23,3965,28.57
-56,218,-84,183,-25,3958,28.60
-55,289,-88,171,-26,3923,28.59
-48,387,-95,142,-34,3883,28.60
-41,533,-122,126,-36,3866,28.60
-27,710,-145,122,-43,3851,28.61
-15,884,-164,129,-47,3853,28.59
-3,1018,-175,140,-35,3901,28.59
1,1103,-182,138,-22,3956,28.58
-2,1110,-185,155,-13,4014,28.60
-14,1049,-173,171,-12,4039,28.59
-31,948,-151,175,-11,4072,28.58
-50,829,-127,175,-3,4080,28.60
-79,687,-104,170,3,4074,28.61
-99,555,-84,137,-8,4041,28.58
-118,426,-66,120,-65,4064,28.57
-135,320,-62,85,-133,4073,28.55
-152,223,-64,51,-154,4071,28.58
-174,163,-76,26,-140,4056,28.59
-201,143,-92,7,-131,4064,28.61
-243,183,-118,-14,-135,4072,28.61
-284,265,-144,3,-112,4106,28.62
-355,355,-172,31,-91,4155,28.61
-439,433,-190,58,-78,4221,28.61
-553,501,-211,53,-72,4242,28.60
-655,544,-233,28,-65,4235,28.59
-741,607,-255,9,-66,4213,28.59
-822,681,-285,-2,-76,4176,28.59
-896,774,-323,-12,-95,4136,28.58
-957,878,-364,-10,-115,4124,28.60
-1024,965,-396,3,-107,4139,28.62
-1092,1031,-430,2,-107,4156,28.61
-1157,1062,-462,-8,-109,4166,28.58
-1223,1092,-494,-20,-111,4154,28.56
-1292,1122,-522,-35,-131,4153,28.56
-1357,1159,-543,-36,-148,4157,28.57
-1426,1200,-573,-57,-147,4164,28.57
-1501,1269,-604,-81,-142,4183,28.58
-1582,1371,-638,-93,-130,4172,28.58
-1664,1489,-663,-96,-117,4173,28.57
-1744,1618,-705,-87,-111,4159,28.59
-1827,1767,-742,-109,-123,4141,28.61
-1909,1930,-772,-112,-128,4115,28.60
-1982,2083,-801,-110,-121,4121,28.60
-2050,2214,-822,-96,-117,4115,28.61
-2116,2329,-833,-77,-135,4134,28.59
-2180,2409,-843,-40,-124,4150,28.61
-2244,2395,-839,14,-132,4193,28.61
-2313,2303,-822,59,-128,4225,28.60
-2382,2121,-793,102,-122,4251,28.62
-2453,1866,-747,106,-129,4272,28.62
-2519,1576,-682,122,-123,4303,28.61
-2587,1236,-604,130,-107,4323,28.62
-2657,841,-523,139,-124,4324,28.60
-2718,391,-451,140,-159,4371,28.59
-2798,-40,-353,101,-180,4376,28.59
-2883,-421,-265,58,-181,4359,28.58
-2966,-771,-186,42,-172,4321,28.59
-3043,-1070,-105,7,-184,4297,28.59
-3123,-1306,-26,-25,-196,4270,28.60
-3199,-1476,51,-57,-201,4215,28.61
-3263,-1570,118,-79,-190,4161,28.60
-3322,-1601,176,-90,-211,4105,28.59
-3370,-1550,225,-134,-219,4031,28.59
-3411,-1384,276,-171,-224,3998,28.60
-3457,-1189,326,-188,-229,3965,28.59
-3493,-935,371,-193,-240,3964,28.56
-3527,-625,426,-222,-238,3942,28.59
-3568,-260,483,-243,-224,3935,28.58
-3623,193,549,-204,-254,3965,28.56
-3675,541,589,-183,-283,4005,28.58
-3724,810,621,-114,-332,4031,28.58
-3783,961,650,-47,-380,4083,28.58
-3845,992,688,13,-419,4138,28.58
-3912,878,714,128,-484,4230,28.59
-3980,634,737,129,-510,4239,28.58
-4052,368,772,159,-516,4296,28.59
-4139,10,797,237,-526,4336,28.62
-4219,-389,825,235,-553,4290,28.59
-4296,-727,857,242,-568,4292,28.58
-4372,-1127,879,316,-575,4312,28.58
-4445,-1463,891,234,-609,4226,28.60
-4512,-1652,919,165,-618,4164,28.60
-4577,-1811,946,154,-628,4141,28.61
-4639,-1975,951,165,-666,4143,28.61
-4698,-2099,950,131,-715,4083,28.59
-4755,-2116,954,39,-747,4016,28.57
-4802,-2059,948,-25,-770,3931,28.57
-4833,-1907,898,-66,-792,3874,28.59
-4849,-1686,838,-102,-817,3850,28.59
-4866,-1471,764,-94,-827,3838,28.59
-4878,-1229,688,-88,-837,3789,28.59
-4886,-964,604,-103,-849,3745,28.57
-4880,-674,521,-145,-870,3681,28.58
-4868,-289,429,-187,-899,3627,28.59
-4846,137,322,-192,-913,3601,28.59
-4823,616,206,-232,-939,3567,28.59
-4795,1148,91,-275,-954,3561,28.61
-4761,1658,-44,-242,-966,3584,28.61
-4739,2143,-173,-222,-993,3609,28.62
-4724,2580,-308,-161,-1001,3608,28.59
-4698,2989,-430,-161,-1018,3601,28.60
-4684,3388,-534,-132,-1018,3631,28.59
-4660,3680,-641,-64,-1018,3664,28.58
-4635,3894,-746,-44,-1041,3682,28.59
-4617,4057,-845,-7,-1062,3734,28.60
-4593,4135,-935,25,-1074,3771,28.61
-4570,4134,-1006,71,-1082,3788,28.60
-4546,4040,-1069,75,-1086,3788,28.61
-4524,3931,-1115,52,-1108,3788,28.60
-4494,3792,-1153,42,-1112,3786,28.59
-4460,3619,-1192,24,-1126,3783,28.61
-4420,3412,-1230,44,-1127,3775,28.60
-4381,3194,-1270,31,-1178,3750,28.60
-4343,3046,-1281,-57,-1236,3729,28.59
-4318,2970,-1281,-75,-1236,3730,28.59
-4298,2900,-1270,-78,-1210,3733,28.60
-4277,2827,-1254,-85,-1226,3732,28.59
-4274,2779,-1229,-100,-1254,3745,28.59
-4263,2733,-1204,-77,-1265,3745,28.60
-4252,2656,-1182,-67,-1299,3760,28.59
-4249,2580,-1145,-45,-1312,3766,28.58
-4252,2489,-1110,-46,-1338,3766,28.61
-4268,2395,-1067,-67,-1351,3775,28.58
-4277,2299,-1023,-76,-1378,3785,28.61
-4285,2221,-974,-107,-1420,3782,28.59
-4295,2116,-933,-119,-1450,3775,28.58
-4310,2004,-906,-141,-1488,3757,28.59
-4323,1870,-887,-157,-1515,3721,28.58
-4330,1735,-870,-159,-1546,3679,28.59
-4343,1633,-832,-187,-1590,3655,28.58
-4351,1556,-795,-207,-1599,3650,28.57
-4355,1494,-767,-232,-1603,3625,28.58
-4349,1432,-758,-276,-1608,3588,28.59
-4332,1410,-764,-332,-1607,3523,28.58
-4309,1436,-782,-379,-1634,3479,28.59
-4271,1507,-808,-418,-1681,3422,28.59
-4225,1637,-847,-458,-1708,3374,28.59
-4176,1801,-893,-467,-1710,3350,28.57
-4124,1980,-943,-486,-1715,3332,28.59
-4066,2183,-996,-495,-1732,3313,28.61
-4013,2397,-1054,-488,-1718,3310,28.59
-3950,2597,-1107,-445,-1719,3346,28.58
-3875,2637,-1153,-328,-1718,3448,28.60
-3822,2577,-1167,-296,-1736,3485,28.60
-3785,2495,-1161,-287,-1751,3500,28.59
-3767,2390,-1147,-269,-1765,3530,28.58
-3748,2233,-1117,-231,-1783,3557,28.58
-3735,1980,-1071,-180,-1817,3596,28.58
-3733,1688,-1008,-176,-1830,3616,28.57
-3743,1401,-937,-180,-1839,3608,28.58
-3759,1125,-861,-195,-1861,3593,28.56
-3777,872,-776,-209,-1876,3570,28.57
-3795,650,-694,-231,-1888,3557,28.57
-3813,446,-616,-263,-1918,3525,28.59
-3828,297,-535,-284,-1935,3504,28.59
-3847,183,-463,-305,-1964,3482,28.60
-3872,69,-373,-326,-1986,3471,28.57
-3892,-16,-310,-321,-2015,3456,28.55
-3906,-105,-265,-334,-2032,3454,28.54
-3934,-188,-210,-324,-2052,3467,28.59
-3956,-255,-164,-336,-2079,3434,28.60
-3984,-316,-124,-362,-2100,3423,28.61
-4002,-435,-107,-351,-2084,3432,28.58
-4003,-557,-104,-375,-2125,3395,28.56
-4008,-660,-111,-396,-2176,3330,28.59
-3996,-729,-122,-431,-2207,3236,28.57
-3976,-760,-141,-475,-2231,3180,28.57
-3926,-726,-171,-514,-2204,3102,28.57
-3868,-633,-200,-540,-2188,3052,28.56
-3807,-480,-229,-539,-2167,3031,28.55
-3741,-274,-241,-525,-2147,3063,28.57
-3683,-34,-245,-499,-2122,3068,28.57
-3630,205,-233,-471,-2100,3099,28.59
-3585,427,-200,-420,-2112,3142,28.56
-3542,601,-169,-355,-2110,3209,28.57
-3509,707,-130,-328,-2130,3218,28.57
-3491,796,-78,-287,-2128,3243,28.59
-3467,833,-28,-254,-2127,3264,28.59
-3452,835,22,-232,-2140,3261,28.61
-3430,785,72,-201,-2147,3276,28.57
-3407,740,134,-208,-2155,3254,28.57
-3391,684,199,-192,-2160,3247,28.59
-3366,629,267,-185,-2188,3254,28.59
-3342,589,330,-200,-2211,3234,28.57
-3324,564,385,-228,-2238,3190,28.57
-3294,541,431,-241,-2266,3171,28.59
-3259,509,460,-277,-2285,3124,28.58
-3221,513,462,-316,-2302,3104,28.57
-3167,537,445,-360,-2320,3038,28.57
-3100,645,421,-405,-2325,2974,28.58
-3022,807,387,-460,-2328,2929,28.59
-2934,1012,336,-493,-2327,2885,28.58
-2829,1248,280,-518,-2333,2846,28.59
-2715,1479,204,-518,-2352,2823,28.60
-2602,1697,139,-497,-2360,2819,28.58
-2473,1848,73,-450,-2360,2838,28.57
-2353,1948,7,-415,-2368,2853,28.57
-2238,2035,-39,-407,-2375,2868,28.57
-2124,2079,-76,-374,-2373,2910,28.57
-2024,2094,-105,-342,-2376,2943,28.57
-1922,2047,-120,-315,-2402,2984,28.58
-1855,1996,-129,-279,-2421,3010,28.57
-1793,1932,-130,-259,-2451,3020,28.57
-1734,1848,-141,-243,-2465,3025,28.59
-1675,1744,-162,-250,-2492,3004,28.59
-1614,1670,-185,-343,-2521,2922,28.57
-1554,1727,-189,-450,-2539,2868,28.57
-1483,1812,-202,-527,-2555,2795,28.58
-1391,1916,-236,-591,-2576,2753,28.59
-1296,2036,-268,-610,-2575,2725,28.57
-1200,2156,-315,-640,-2577,2701,28.56
-1092,2283,-371,-658,-2583,2664,28.58
-984,2397,-417,-657,-2580,2689,28.56
-874,2464,-461,-608,-2585,2708,28.58
-777,2451,-482,-564,-2591,2747,28.56
-689,2346,-468,-506,-2584,2800,28.59
-603,2168,-437,-465,-2571,2826,28.60
-520,1947,-392,-443,-2543,2843,28.59
-423,1703,-327,-429,-2520,2861,28.61
-336,1432,-264,-411,-2507,2876,28.59
-251,1154,-189,-417,-2506,2874,28.57
-162,886,-120,-448,-2502,2834,28.58
-64,645,-69,-500,-2524,2794,28.57
42,456,-26,-542,-2570,2762,28.57
145,306,-7,-595,-2611,2755,28.58
249,188,-17,-646,-2621,2711,28.59
367,119,-37,-682,-2616,2636,28.59
498,104,-74,-736,-2624,2594,28.60
631,141,-129,-754,-2618,2575,28.58
757,192,-174,-692,-2577,2617,28.60
892,124,-187,-516,-2491,2718,28.59
1047,-177,-151,-322,-2389,2824,28.59
1213,-719,-72,-188,-2311,2917,28.59
1376,-1454,42,-80,-2270,3002,28.58
1538,-2302,194,-13,-2256,3052,28.56
1682,-3166,368,21,-2254,3076,28.58
1805,-3986,569,13,-2248,3112,28.57
1921,-4750,761,-17,-2195,3149,28.58
2028,-5387,954,-68,-2172,3127,28.58
2140,-5898,1127,-136,-2156,3072,28.58
2249,-6080,1280,-242,-2175,2990,28.59
2380,-6180,1394,-394,-2194,2879,28.60
2519,-6090,1456,-526,-2231,2784,28.58
2656,-5798,1462,-688,-2306,2682,28.56
2803,-5266,1412,-849,-2360,2592,28.58
2993,-4268,1279,-1019,-2420,2465,28.57
3153,-3250,1117,-1100,-2476,2410,28.56
3295,-2112,927,-1124,-2494,2393,28.59
3421,-935,718,-1099,-2496,2417,28.59
3540,197,495,-1035,-2510,2484,28.59
3650,1192,272,-920,-2503,2572,28.61
3758,2016,69,-769,-2484,2673,28.61
3853,2662,-113,-646,-2446,2792,28.59
3928,3125,-251,-529,-2438,2922,28.59
3967,3393,-364,-414,-2432,3083,28.60
3974,3497,-440,-344,-2404,3204,28.59
3970,3489,-500,-337,-2386,3252,28.57
3961,3459,-558,-374,-2379,3227,28.59
3959,3449,-618,-404,-2397,3184,28.58
3959,3513,-668,-446,-2422,3135,28.58
3962,3634,-738,-500,-2433,3110,28.59
3972,3803,-820,-565,-2443,3054,28.59
3998,3997,-913,-585,-2408,3028,28.59
4033,4160,-1010,-542,-2355,3090,28.60
4072,4227,-1089,-489,-2262,3154,28.58
4116,4172,-1143,-420,-2175,3252,28.57
4160,3988,-1172,-352,-2103,3326,28.59
4191,3655,-1176,-231,-2044,3448,28.58
4217,3101,-1135,-88,-2006,3571,28.58
4230,2299,-1056,72,-1948,3687,28.58
4236,1268,-946,185,-1918,3798,28.59
4226,92,-814,202,-1890,3857,28.58
4203,-1150,-677,243,-1837,3928,28.57
4177,-2377,-552,209,-1810,3902,28.58
4149,-3442,-426,109,-1822,3849,28.57
4118,-4297,-311,-27,-1818,3785,28.59
4080,-4932,-204,-139,-1812,3729,28.59
4048,-5342,-92,-244,-1776,3677,28.60
3985,-5523,47,-342,-1738,3622,28.60
3923,-5655,168,-352,-1746,3641,28.60
3883,-5710,266,-412,-1792,3589,28.59
3843,-5686,317,-496,-1820,3540,28.58
3818,-5501,347,-609,-1818,3466,28.59
3829,-5157,368,-768,-1786,3328,28.59
3873,-4566,373,-862,-1732,3234,28.61
3932,-3850,370,-944,-1703,3119,28.58
4003,-3001,366,-950,-1677,3077,28.58
4083,-2024,352,-825,-1667,3104,28.61
4139,-1411,343,-705,-1650,3173,28.59
4193,-918,338,-590,-1600,3252,28.58
4230,-509,358,-505,-1548,3364,28.57
4263,-151,381,-446,-1489,3449,28.57
4285,199,417,-378,-1434,3488,28.59
4306,537,465,-343,-1440,3468,28.60
4326,900,509,-396,-1468,3410,28.59
4351,1329,524,-447,-1488,3385,28.58
4388,1759,515,-441,-1473,3415,28.59
4414,2106,496,-350,-1447,3521,28.59
4467,2252,470,-247,-1425,3609,28.59
4501,2249,447,-157,-1436,3662,28.58
4540,2101,435,-109,-1420,3711,28.58
4577,1857,422,-80,-1434,3732,28.57
4587,1557,411,-66,-1464,3778,28.58
4578,1240,404,-30,-1462,3840,28.61
4552,836,423,59,-1501,3943,28.59
4498,253,445,148,-1562,4077,28.57
4413,-516,468,194,-1638,4157,28.59
4315,-1402,474,195,-1705,4190,28.57
4203,-2326,475,157,-1734,4191,28.59
4119,-3120,476,-22,-1757,4156,28.59
4003,-3732,469,-121,-1733,4153,28.59
3930,-4240,447,-248,-1694,4112,28.59
3854,-4581,395,-300,-1695,4025,28.58
3767,-4809,330,-332,-1717,3952,28.58
3686,-4949,264,-396,-1725,3854,28.60
3621,-4939,189,-499,-1717,3735,28.60
3570,-4740,106,-637,-1671,3614,28.58
3529,-4366,19,-703,-1609,3525,28.57
3506,-3882,-64,-714,-1539,3455,28.58
3503,-3307,-133,-691,-1468,3393,28.57
3526,-2689,-194,-665,-1393,3338,28.58
3560,-2022,-242,-670,-1302,3284,28.58
3617,-1336,-286,-627,-1216,3273,28.58
3684,-657,-312,-576,-1176,3264,28.60
3764,0,-306,-543,-1135,3279,28.61
3837,595,-312,-483,-1086,3342,28.61
3921,1146,-310,-466,-1063,3350,28.59
4019,1780,-317,-425,-1043,3410,28.59
4092,2211,-328,-364,-1014,3460,28.58
4155,2586,-343,-285,-974,3547,28.57
4199,2875,-351,-238,-946,3623,28.58
4238,3068,-358,-207,-930,3694,28.59
4281,3168,-364,-158,-928,3762,28.59
4310,3167,-375,-136,-930,3805,28.59
4330,3094,-394,-120,-942,3833,28.61
4340,2960,-418,-113,-938,3888,28.60
4348,2739,-430,-82,-930,3921,28.59
4365,2457,-436,-102,-943,3934,28.59
4383,2099,-451,-119,-949,3972,28.61
4385,1676,-469,-144,-944,4011,28.61
4380,1238,-480,-144,-915,4055,28.59
4355,800,-464,-71,-861,4129,28.59
4319,260,-408,28,-800,4238,28.59
4262,-405,-311,118,-738,4355,28.57
4193,-1173,-185,144,-678,4426,28.59
4116,-1961,-41,130,-645,4463,28.58
4023,-2685,118,87,-608,4468,28.58
3917,-3318,290,13,-584,4417,28.57
3817,-3818,452,-90,-562,4319,28.57
3719,-4147,598,-184,-562,4234,28.60
3646,-4310,721,-273,-627,4128,28.59
3573,-4337,814,-369,-693,4031,28.59
3527,-4236,880,-442,-742,3923,28.59
3490,-4008,917,-499,-788,3839,28.58
3470,-3678,939,-521,-791,3782,28.58
3446,-3300,938,-520,-778,3810,28.58
3422,-2909,916,-494,-772,3832,28.59
3384,-2517,880,-457,-771,3877,28.59
3329,-2137,827,-424,-781,3898,28.57
3271,-1753,764,-409,-772,3956,28.59
3194,-1349,681,-411,-751,3971,28.57
3117,-899,602,-396,-739,3983,28.56
3026,-426,519,-364,-722,4002,28.60
2935,30,428,-354,-708,3995,28.57
2844,467,326,-361,-692,4009,28.59
2760,896,219,-363,-673,4017,28.59
2673,1288,121,-310,-667,3997,28.59
2600,1619,38,-232,-652,4015,28.58
2524,1852,-30,-112,-602,4037,28.59
2474,1858,-49,-19,-513,4106,28.59
2427,1732,-45,62,-416,4173,28.59
2371,1508,-8,108,-321,4220,28.58
2315,1212,47,135,-247,4280,28.61
2249,877,123,147,-214,4335,28.60
2173,526,214,129,-220,4378,28.59
2076,175,300,99,-228,4386,28.59
1981,-138,371,50,-231,4363,28.57
1890,-379,429,13,-231,4318,28.57
1800,-583,476,-28,-246,4286,28.58
1711,-726,508,-69,-264,4267,28.59
1631,-803,528,-95,-266,4213,28.58
1550,-817,538,-115,-265,4183,28.58
1481,-803,547,-101,-261,4139,28.59
1422,-775,541,-108,-287,4087,28.59
1376,-748,537,-114,-343,4061,28.58
1340,-737,518,-104,-395,4066,28.58
1315,-798,480,-88,-435,4070,28.59
1294,-894,421,-102,-435,4000,28.57
1290,-942,348,-103,-404,3935,28.59
1302,-919,278,-126,-363,3875,28.57
1317,-804,200,-149,-322,3846,28.58
1332,-634,119,-149,-283,3858,28.59
1343,-427,33,-125,-244,3856,28.59
1352,-251,-57,-96,-234,3881,28.59
1365,-119,-149,-31,-220,3894,28.62
1389,-9,-216,36,-222,3881,28.62
1424,49,-266,94,-225,3877,28.60
1487,50,-324,99,-230,3877,28.58
1573,20,-391,108,-207,3873,28.56
1688,-53,-475,118,-157,3872,28.57
1809,-119,-571,120,-103,3884,28.57
1936,-225,-662,191,-27,3950,28.58
2080,-399,-744,249,24,4003,28.58
2223,-607,-817,275,56,4035,28.59
2343,-835,-885,276,74,4091,28.60
2433,-1071,-946,280,78,4158,28.61
2502,-1287,-1015,263,36,4191,28.61
2553,-1460,-1096,218,18,4213,28.59
2600,-1600,-1182,177,-41,4224,28.62
2639,-1721,-1276,160,-65,4235,28.59
2648,-1855,-1362,182,-77,4267,28.62
2626,-2081,-1461,200,-86,4288,28.59
2607,-2255,-1523,189,-41,4239,28.60
2610,-2359,-1563,134,16,4167,28.58
2640,-2351,-1599,82,75,4091,28.57
2671,-2258,-1621,41,110,4032,28.60
2692,-2113,-1633,30,112,4018,28.58
2708,-1967,-1626,19,117,3999,28.59
2704,-1821,-1633,9,93,4012,28.59
2681,-1629,-1627,-25,27,4017,28.60
2641,-1422,-1629,-76,-13,3989,28.60
2619,-1197,-1662,-138,-48,3933,28.60
2602,-943,-1725,-201,-123,3926,28.63
2575,-680,-1817,-243,-196,3921,28.61
2528,-425,-1928,-267,-238,3913,28.61
2462,-188,-2034,-260,-229,3882,28.59
2389,73,-2123,-256,-170,3846,28.61
2318,385,-2186,-259,-92,3825,28.62
2255,739,-2214,-252,-12,3806,28.58
2179,1124,-2226,-250,40,3812,28.57
2095,1479,-2228,-228,65,3844,28.60
2008,1755,-2228,-200,48,3854,28.60
1935,1929,-2225,-156,-1,3872,28.60
1879,2000,-2202,-108,-29,3913,28.59
1805,2012,-2164,-94,-34,4029,28.59
1694,1983,-2118,-71,-41,4149,28.61
1295,2048,-2016,166,-666,6822,28.61
463,1398,-2012,53,59,5063,28.59
213,1052,-1993,-156,-82,4219,28.61
184,1171,-1863,-223,-150,4132,28.60
271,1410,-1705,-309,-11,4113,28.59
387,1490,-1564,-221,164,4203,28.59
503,1371,-1402,-149,241,4230,28.60
619,1189,-1197,-144,285,4173,28.58
718,1067,-960,-174,330,4139,28.59
796,948,-719,-186,349,4160,28.59
855,785,-476,-193,305,4174,28.59
911,576,-238,-192,251,4195,28.58
985,368,-16,-253,213,4179,28.60
1065,130,193,-234,211,4208,28.61
1140,-126,396,-232,204,4205,28.59
1224,-368,594,-243,184,4207,28.60
1315,-610,832,-290,155,4169,28.59
1378,-719,993,-337,152,4128,28.59
1453,-727,1133,-365,170,4072,28.60
1530,-623,1274,-390,191,4007,28.60
1583,-445,1407,-394,214,3996,28.59
1609,-253,1537,-360,234,4023,28.59
1628,-98,1664,-322,225,4010,28.60
1641,-1,1776,-274,212,3997,28.58
1663,56,1877,-239,209,4005,28.59
1687,64,1982,-197,233,4012,28.58
1709,24,2082,-127,274,4032,28.59
1724,-75,2182,-62,312,4049,28.59
1735,-233,2286,-32,332,4059,28.62
1746,-415,2378,-29,313,4032,28.60
1740,-585,2455,-53,288,4022,28.61
1736,-717,2516,-58,242,3996,28.60
1744,-826,2563,-53,216,3988,28.59
1754,-953,2611,-14,189,3982,28.59
1762,-1119,2653,20,151,4011,28.59
1766,-1320,2685,33,160,4018,28.59
1770,-1510,2711,11,191,4023,28.59
1788,-1608,2728,-34,226,3997,28.62
1804,-1606,2736,-85,241,3988,28.60
1818,-1515,2735,-96,237,3963,28.60
1840,-1385,2724,-96,243,3944,28.60
1873,-1251,2707,-65,263,3933,28.58
1906,-1137,2691,-26,291,3920,28.57
1934,-1022,2679,8,346,3913,28.59
1947,-924,2673,33,373,3937,28.59
1946,-820,2653,49,405,3924,28.59
1934,-706,2635,67,436,3892,28.61
1908,-600,2599,91,473,3846,28.60
1893,-464,2576,103,516,3816,28.60
1873,-282,2551,123,544,3771,28.58
1856,-68,2535,150,574,3746,28.56
1840,158,2510,169,608,3745,28.55
1823,361,2463,203,567,3785,28.58
1801,461,2400,252,489,3856,28.59
1784,454,2317,346,414,3929,28.59
1804,297,2217,424,363,3998,28.58
1843,23,2105,456,318,4027,28.59
1927,-363,1946,414,327,3995,28.60
2002,-564,1800,366,390,3972,28.60
2068,-660,1638,334,441,3970,28.59
2108,-668,1489,331,496,3985,28.61
2125,-678,1334,354,505,4027,28.61
2128,-738,1174,367,515,4066,28.61
2129,-798,1019,361,531,4046,28.61
2132,-838,862,353,563,4022,28.61
2125,-837,718,347,601,4012,28.60
2101,-812,585,330,641,4017,28.60
2070,-766,451,311,657,4007,28.57
2038,-697,329,277,667,3980,28.58
2012,-585,215,258,673,3917,28.59
2024,-412,112,239,693,3855,28.59
2056,-219,12,243,728,3819,28.58
2112,-50,-91,262,765,3848,28.59
2175,71,-192,287,784,3879,28.58
2219,138,-295,307,757,3930,28.59
2266,180,-411,294,731,3954,28.57
2324,206,-530,306,726,3959,28.58
2407,216,-655,305,720,3962,28.60
2511,211,-781,301,713,3938,28.59
2628,188,-909,307,747,3932,28.59
2742,171,-1030,293,794,3934,28.60
2835,178,-1135,275,844,3916,28.58
2904,203,-1228,255,898,3882,28.59
2960,249,-1306,228,923,3861,28.59
2992,324,-1369,225,925,3848,28.59
3013,408,-1416,212,936,3825,28.60
3024,493,-1443,187,949,3777,28.61
3021,575,-1468,163,965,3770,28.59
2992,685,-1478,137,980,3775,28.61
2944,832,-1486,101,989,3793,28.62
2889,969,-1505,92,964,3789,28.60
2845,1071,-1528,97,924,3785,28.59
2807,1122,-1549,104,873,3815,28.59
2780,1140,-1564,126,855,3814,28.58
2776,1129,-1573,147,878,3816,28.59
2783,1083,-1578,145,927,3833,28.56
2794,1005,-1578,152,996,3885,28.58
2794,874,-1575,163,1060,3931,28.60
2783,681,-1549,161,1104,3953,28.59
2779,540,-1520,140,1110,3937,28.60
2793,435,-1480,96,1123,3889,28.60
2810,398,-1432,40,1140,3859,28.59
2836,394,-1387,6,1150,3850,28.59
2844,407,-1348,-31,1150,3854,28.60
2830,443,-1294,-51,1157,3842,28.59
2800,477,-1225,-69,1175,3813,28.57
2758,534,-1144,-84,1200,3811,28.59
2708,606,-1058,-97,1228,3806,28.59
2653,681,-962,-83,1237,3806,28.59
2593,740,-848,-66,1237,3800,28.60
2542,761,-723,-47,1227,3794,28.61
2513,741,-593,-50,1210,3779,28.62
2504,686,-467,-46,1210,3772,28.62
2506,602,-333,-4,1235,3820,28.59
2500,447,-194,89,1248,3897,28.59
2506,108,-46,205,1237,3984,28.59
2549,-433,100,300,1232,4017,28.62
2606,-1067,249,318,1262,4017,28.59
2684,-1661,403,256,1310,3977,28.59
2774,-2093,553,159,1373,3920,28.59
2859,-2310,683,50,1412,3850,28.59
2939,-2320,795,-48,1442,3807,28.61
3011,-2184,888,-102,1458,3787,28.60
3074,-1980,957,-110,1444,3810,28.60
3131,-1779,999,-86,1418,3824,28.61
3190,-1601,1041,-54,1388,3857,28.63
3243,-1462,1065,-31,1366,3876,28.59
3276,-1360,1076,5,1355,3928,28.61
3283,-1336,1079,70,1344,3970,28.60
3279,-1369,1080,92,1358,3987,28.60
3264,-1412,1078,92,1388,3959,28.61
3253,-1394,1077,80,1411,3939,28.62
3258,-1346,1079,94,1440,3897,28.61
3272,-1294,1079,118,1455,3879,28.60
3305,-1269,1081,156,1426,3881,28.62
3346,-1242,1080,129,1379,3812,28.61
3397,-1173,1071,85,1357,3741,28.62
3453,-998,1047,28,1364,3659,28.61
3486,-725,1025,-7,1388,3587,28.59
3482,-423,999,12,1425,3570,28.58
3425,-156,982,65,1479,3594,28.59
3326,31,981,116,1507,3614,28.59
3162,142,1003,187,1507,3610,28.60
3017,134,1025,215,1477,3582,28.59
2876,115,1055,221,1461,3566,28.59
2729,87,1100,267,1449,3557,28.60
2597,-33,1145,338,1469,3574,28.61
2499,-261,1199,412,1514,3591,28.62
2444,-537,1272,459,1543,3595,28.61
2434,-837,1347,456,1567,3585,28.60
2471,-1101,1404,418,1604,3588,28.59
2514,-1310,1450,407,1650,3636,28.61
2563,-1480,1486,413,1665,3670,28.60
2636,-1656,1507,433,1646,3683,28.60
2743,-1841,1508,419,1627,3718,28.61
2869,-1996,1502,377,1610,3733,28.60
2990,-2068,1474,324,1613,3722,28.60
3115,-2079,1428,273,1596,3714,28.60
3241,-2000,1363,189,1558,3688,28.60
3357,-1820,1270,128,1536,3643,28.61
3464,-1538,1180,88,1533,3591,28.62
3534,-1209,1096,69,1539,3554,28.63
3573,-838,1014,76,1552,3505,28.60
3583,-457,944,85,1572,3465,28.62
3582,-59,880,97,1628,3404,28.61
3576,360,842,113,1683,3327,28.60
3553,790,815,132,1738,3267,28.60
3508,1196,802,189,1766,3223,28.60
3447,1566,813,245,1820,3211,28.62
3385,1883,836,305,1880,3202,28.60
3318,2132,872,364,1895,3204,28.59
3250,2290,918,412,1867,3189,28.59
3202,2400,975,425,1823,3163,28.62
3159,2497,1029,402,1788,3124,28.62
3099,2575,1083,430,1755,3149,28.60
3045,2540,1143,493,1740,3193,28.59
2995,2346,1205,584,1743,3239,28.61
2941,2035,1279,652,1803,3257,28.61
2870,1609,1376,741,1831,3297,28.62
2801,1082,1483,784,1840,3318,28.63
2738,501,1593,782,1829,3290,28.61
2676,-37,1681,728,1859,3239,28.59
2607,-461,1752,642,1887,3169,28.60
2518,-720,1802,566,1927,3131,28.60
2364,-905,1836,533,1968,3135,28.60
2215,-1039,1838,561,1967,3170,28.62
2036,-1214,1827,584,1932,3235,28.61
1832,-1383,1792,567,1880,3240,28.62
1626,-1489,1739,523,1839,3233,28.64
1424,-1508,1651,443,1824,3224,28.61
1250,-1437,1522,381,1842,3206,28.59
1114,-1302,1381,389,1868,3205,28.60
1029,-1144,1231,408,1870,3215,28.62
994,-1012,1068,449,1832,3261,28.61
992,-937,893,481,1778,3301,28.60
1041,-892,700,507,1760,3318,28.59
1104,-858,489,498,1760,3315,28.59
1197,-772,259,470,1790,3328,28.62
1274,-626,19,448,1855,3351,28.59
1345,-426,-237,445,1900,3358,28.59
1400,-193,-482,426,1951,3364,28.58
1455,77,-727,427,2010,3348,28.59
1498,359,-964,425,2054,3353,28.62
1533,617,-1183,451,2075,3395,28.62
1554,840,-1380,461,2047,3407,28.60
1596,1010,-1583,456,1997,3395,28.59
1646,1147,-1766,451,1981,3394,28.62
1689,1238,-1937,490,1977,3458,28.61
1721,1198,-2090,562,1996,3513,28.60
1751,991,-2220,647,2029,3596,28.60
1779,649,-2318,682,2079,3615,28.61
1807,260,-2376,665,2162,3605,28.62
1860,-93,-2408,618,2224,3548,28.62
1914,-383,-2408,568,2273,3472,28.61
1970,-611,-2387,504,2298,3436,28.62
2015,-772,-2348,421,2312,3391,28.59
2037,-847,-2297,343,2332,3371,28.61
2043,-863,-2244,266,2318,3335,28.62
2028,-831,-2186,198,2297,3317,28.60
1995,-763,-2112,165,2278,3297,28.60
1943,-693,-2016,142,2276,3283,28.59
1876,-629,-1898,116,2265,3260,28.61
1803,-534,-1763,70,2283,3223,28.63
1732,-405,-1619,31,2305,3224,28.62
1641,-250,-1473,-6,2334,3221,28.61
1547,-85,-1322,-12,2354,3235,28.62
1437,100,-1112,-25,2346,3215,28.62
1362,242,-947,-55,2314,3219,28.60
1293,382,-776,-55,2302,3182,28.60
1229,527,-596,-57,2300,3180,28.59
1161,666,-429,-49,2286,3202,28.61
1099,759,-252,-9,2299,3230,28.62
1057,830,-63,41,2323,3210,28.61
1041,903,136,59,2369,3194,28.60
1048,973,338,75,2414,3201,28.59
1069,1025,534,100,2442,3228,28.61
1099,1060,726,135,2456,3268,28.62
1123,1057,918,165,2449,3298,28.62
1157,1021,1090,184,2461,3322,28.60
1194,947,1242,219,2465,3362,28.60
1240,837,1384,234,2476,3377,28.63
1281,694,1507,265,2498,3397,28.62
1314,503,1630,320,2500,3472,28.60
1343,259,1733,326,2492,3519,28.60
1363,42,1814,291,2485,3493,28.62
1404,-91,1886,230,2472,3442,28.62
1459,-104,1939,166,2475,3389,28.59
1506,-32,1971,144,2500,3368,28.58
1540,108,1986,117,2514,3357,28.62
1560,287,1995,127,2479,3371,28.62
1587,499,1982,133,2450,3336,28.60
1631,709,1970,181,2423,3296,28.62
1684,897,1956,231,2401,3274,28.60
1762,1024,1954,299,2406,3272,28.60
1851,1084,1934,359,2425,3263,28.62
1930,1106,1920,419,2435,3279,28.60
1999,1061,1900,477,2472,3285,28.62
2047,948,1888,542,2505,3310,28.62
2096,750,1877,608,2537,3322,28.62
2135,484,1876,658,2545,3306,28.59
2175,190,1876,661,2546,3274,28.59
2218,-69,1863,642,2519,3233,28.58
2263,-274,1845,600,2489,3184,28.60
2313,-392,1809,537,2465,3116,28.59
2356,-411,1756,494,2464,3052,28.59
2375,-363,1696,466,2473,3012,28.60
2369,-294,1614,458,2472,3019,28.60
2315,-254,1502,492,2473,3065,28.62
2243,-274,1415,511,2474,3074,28.62
2161,-294,1323,499,2468,3056,28.62
2068,-273,1223,444,2448,3016,28.61
1979,-170,1100,368,2432,2967,28.62
1885,27,971,328,2407,2942,28.62
1786,244,826,325,2362,2953,28.62
1673,404,668,364,2336,2971,28.61
1564,515,518,396,2363,2970,28.60
1455,610,387,435,2416,2972,28.62
1359,671,282,483,2450,2972,28.62
1272,667,184,506,2482,2953,28.63
1203,738,89,465,2513,2895,28.63
1146,832,12,520,2496,2908,28.62
1105,853,-51,517,2495,2888,28.61
1072,895,-107,524,2521,2842,28.62
1062,951,-157,530,2549,2844,28.62
1075,994,-203,532,2562,2836,28.62
1094,1024,-243,546,2567,2877,28.61
1113,1014,-274,561,2587,2911,28.60
1127,951,-308,579,2591,2964,28.62
1124,804,-329,613,2582,3013,28.63
1102,594,-352,612,2563,3007,28.63
1076,396,-366,560,2568,2956,28.62
1042,269,-374,504,2608,2929,28.61
983,195,-389,466,2634,2924,28.62
908,136,-399,463,2637,2927,28.60
827,66,-405,448,2618,2903,28.61
755,3,-409,431,2585,2875,28.60
689,-37,-414,381,2553,2825,28.62
626,-21,-429,335,2503,2824,28.60
548,18,-449,293,2479,2820,28.59
469,102,-477,241,2474,2776,28.58
400,239,-507,218,2475,2750,28.61
313,390,-530,237,2479,2753,28.59
225,498,-538,274,2497,2779,28.62
121,554,-548,316,2519,2799,28.62
0,554,-543,328,2544,2827,28.61
-120,567,-523,317,2594,2827,28.61
-232,593,-496,316,2647,2824,28.61
-334,623,-465,314,2659,2871,28.60
-416,638,-428,321,2665,2878,28.62
-499,628,-390,346,2644,2895,28.62
-580,580,-328,333,2592,2909,28.61
-632,549,-287,297,2554,2925,28.61
-670,555,-256,252,2519,2920,28.59
-705,610,-239,196,2499,2907,28.59
-748,705,-236,184,2500,2948,28.62
-789,776,-236,181,2492,2983,28.62
-839,830,-240,177,2482,3004,28.62
-895,868,-256,181,2480,3001,28.63
-938,909,-260,193,2519,2991,28.62
-975,976,-257,194,2553,3006,28.60
-1012,1041,-255,190,2558,3055,28.60
-1051,1088,-256,195,2548,3090,28.59
-1088,1112,-252,203,2531,3098,28.59
-1119,1127,-252,203,2517,3112,28.60
-1155,1138,-253,182,2516,3125,28.60
-1199,1160,-255,163,2520,3104,28.60
-1242,1187,-254,178,2509,3132,28.61
-1298,1165,-248,204,2492,3169,28.61
-1361,1096,-234,202,2484,3154,28.60
-1408,1044,-226,183,2494,3135,28.60
-1446,1036,-214,159,2503,3099,28.59
-1484,1074,-196,140,2505,3082,28.61
-1524,1118,-188,137,2494,3084,28.61
-1564,1149,-175,135,2493,3088,28.62
-1607,1188,-166,140,2506,3094,28.62
-1651,1252,-148,150,2493,3088,28.64
-1700,1306,-133,156,2479,3088,28.63
-1775,1362,-125,137,2477,3077,28.62
-1851,1447,-123,126,2490,3061,28.59
-1931,1563,-119,120,2484,3036,28.59
-2021,1681,-118,134,2483,3015,28.58
-2113,1785,-104,170,2490,3021,28.60
-2222,1836,-86,225,2477,3065,28.61
-2328,1791,-61,281,2467,3096,28.62
-2419,1657,-29,313,2470,3134,28.62
-2475,1464,2,345,2455,3161,28.61
-2515,1257,39,361,2465,3188,28.62
-2548,1011,81,381,2475,3210,28.64
-2576,755,127,380,2497,3219,28.62
-2597,510,173,353,2528,3228,28.62
-2632,318,219,316,2547,3208,28.60
-2680,186,268,251,2562,3200,28.59
-2760,109,320,193,2543,3198,28.61
-2830,88,350,179,2518,3183,28.62
-2901,71,386,175,2470,3192,28.62
-2986,30,429,188,2422,3196,28.60
-3083,-43,472,202,2336,3201,28.60
-3185,-111,516,172,2281,3170,28.60
-3302,-122,557,112,2259,3114,28.59
-3451,-25,592,53,2211,3068,28.61
-3616,143,630,-6,2096,2982,28.63
-3745,350,631,-63,1993,2893,28.61
-3827,635,613,-73,1968,2824,28.61
-3887,986,588,-51,2018,2851,28.61
-3968,1317,553,-12,2070,2923,28.61
-4080,1603,498,43,2114,2976,28.63
-4219,1821,432,103,2105,3036,28.64
-4364,1967,368,177,2079,3052,28.63
-4516,2038,296,217,2011,3117,28.62
-4666,2048,204,245,1977,3131,28.62
-4775,2054,96,269,1980,3099,28.59
-4847,2093,0,286,1982,3059,28.59
-4889,2159,-99,287,2004,3071,28.60
-4923,2241,-203,292,2023,3098,28.60
-4939,2307,-318,331,1995,3125,28.60
-4944,2351,-437,362,1965,3169,28.59
-4930,2356,-551,409,1962,3195,28.60
-4898,2327,-665,448,2009,3267,28.61
-4869,2261,-791,448,2088,3337,28.60
-4840,2165,-936,473,2133,3439,28.59
-4812,1977,-1073,523,2128,3532,28.60
-4773,1728,-1218,540,2084,3589,28.61
-4708,1454,-1366,514,2038,3620,28.61
-4623,1214,-1509,450,2007,3613,28.62
-4512,1028,-1649,397,2002,3593,28.61
-4391,894,-1785,335,1989,3580,28.58
-4274,812,-1914,276,1977,3566,28.59
-4171,799,-2026,207,1989,3531,28.62
-4080,874,-2128,147,1998,3499,28.61
-4008,1003,-2216,90,1966,3487,28.61
-3959,1140,-2296,55,1918,3478,28.60
-3925,1244,-2368,25,1859,3463,28.62
-3904,1301,-2436,45,1796,3490,28.62
-3881,1305,-2485,51,1739,3483,28.59
-3867,1291,-2518,6,1726,3477,28.60
-3857,1328,-2557,-60,1760,3448,28.62
-3866,1450,-2594,-136,1781,3437,28.62
-3883,1643,-2624,-190,1767,3413,28.60
-3907,1871,-2647,-225,1724,3445,28.61
-3928,2075,-2668,-240,1661,3493,28.61
-3926,2227,-2707,-246,1608,3507,28.59
-3912,2345,-2736,-257,1583,3502,28.60
-3895,2445,-2766,-259,1591,3523,28.62
-3889,2515,-2782,-274,1610,3565,28.62
-3894,2573,-2801,-287,1616,3601,28.62
-3923,2615,-2811,-311,1622,3624,28.59
-3966,2661,-2828,-330,1621,3604,28.59
-4010,2740,-2824,-370,1625,3594,28.59
-4053,2856,-2814,-388,1629,3577,28.60
-4096,2953,-2785,-376,1616,3612,28.59
-4146,2970,-2738,-318,1596,3687,28.62
-4196,2825,-2674,-202,1612,3780,28.62
-4237,2497,-2573,-72,1653,3853,28.63
-4257,2002,-2424,8,1678,3920,28.61
-4261,1414,-2253,17,1695,3931,28.61
-4251,848,-2063,-39,1697,3890,28.62
-4226,395,-1875,-165,1688,3842,28.64
-4182,103,-1695,-296,1673,3748,28.61
-4131,-12,-1526,-418,1647,3664,28.62
-4066,20,-1370,-515,1624,3619,28.61
-3985,166,-1231,-561,1568,3602,28.61
-3913,359,-1092,-583,1509,3625,28.62
-3842,552,-960,-590,1467,3627,28.62
-3775,733,-842,-591,1408,3635,28.63
-3708,909,-739,-583,1374,3664,28.63
-3662,1034,-639,-561,1349,3715,28.62
-3640,1132,-545,-557,1330,3722,28.63
-3642,1221,-458,-552,1300,3719,28.62
-3665,1308,-383,-543,1251,3746,28.62
-3706,1386,-316,-533,1221,3738,28.61
-3738,1481,-250,-512,1216,3724,28.61
-3758,1605,-189,-505,1204,3691,28.61
-3772,1707,-145,-475,1214,3718,28.60
-3767,1761,-113,-424,1218,3738,28.60
-3760,1761,-85,-358,1231,3764,28.60
-3757,1711,-42,-287,1235,3776,28.60
-3767,1620,4,-260,1218,3816,28.61
-3770,1535,24,-266,1180,3846,28.61
-3751,1453,17,-259,1133,3848,28.63
-3706,1375,-14,-262,1077,3846,28.63
-3644,1301,-53,-276,1028,3832,28.62
-3573,1247,-119,-291,1028,3851,28.62
-3515,1229,-202,-295,1035,3887,28.62
-3466,1212,-298,-278,1024,3947,28.62
-3440,1184,-402,-264,1023,3979,28.60
-3416,1150,-515,-277,1031,3984,28.61
-3390,1151,-640,-302,1020,3996,28.62
-3362,1192,-781,-339,984,3999,28.63
-3327,1243,-930,-358,942,4014,28.60
-3299,1269,-1087,-355,898,4014,28.59
-3270,1288,-1259,-388,858,3998,28.61
-3255,1320,-1428,-421,832,3985,28.60
-3253,1383,-1601,-487,811,3984,28.61
-3276,1499,-1761,-534,792,3954,28.60
-3319,1664,-1911,-556,798,3913,28.61
-3346,1847,-2046,-566,817,3890,28.60
-3359,2059,-2150,-560,845,3867,28.61
-3346,2244,-2228,-543,860,3830,28.59
-3318,2373,-2288,-523,844,3829,28.59
-3276,2435,-2332,-501,815,3818,28.61
-3230,2433,-2348,-487,800,3804,28.59
-3194,2408,-2339,-485,802,3800,28.61
-3159,2366,-2311,-485,809,3795,28.61
-3134,2281,-2269,-485,795,3813,28.63
-3112,2149,-2211,-474,810,3803,28.62
-3087,1971,-2133,-477,826,3803,28.58
-3065,1778,-2034,-482,851,3815,28.61
-3052,1546,-1918,-484,852,3834,28.62
-3042,1254,-1806,-459,830,3855,28.62
-3014,929,-1667,-457,796,3851,28.60
-2970,623,-1522,-481,780,3852,28.61
-2909,306,-1380,-532,750,3865,28.62
-2826,21,-1251,-605,718,3837,28.62
-2727,-182,-1135,-685,682,3769,28.61
-2614,-289,-1027,-722,654,3746,28.64
-2495,-339,-914,-758,641,3746,28.62
-2365,-389,-785,-785,623,3781,28.62
-2276,-450,-706,-807,574,3804,28.62
-2222,-544,-636,-847,482,3815,28.63
-2204,-609,-582,-918,375,3791,28.60
-2235,-561,-554,-1042,290,3722,28.60
-2318,-343,-545,-1195,248,3637,28.61
-2458,77,-553,-1311,240,3530,28.61
-2654,663,-567,-1383,250,3445,28.63
-2898,1342,-567,-1393,273,3419,28.63
-3193,2020,-561,-1352,241,3416,28.64
-3500,2598,-547,-1283,224,3429,28.61
-3790,3052,-519,-1196,241,3448,28.62
-4055,3382,-464,-1078,240,3458,28.64
-4285,3574,-391,-982,221,3484,28.63
-4458,3629,-315,-889,225,3502,28.63
-4559,3612,-210,-812,249,3539,28.63
-4599,3554,-89,-774,265,3544,28.63
-4567,3466,17,-783,283,3543,28.62
-4487,3371,115,-773,297,3572,28.61
-4373,3260,191,-732,310,3627,28.60
-4228,3125,249,-710,329,3708,28.60
-4093,2948,298,-673,357,3800,28.61
-3958,2721,332,-650,372,3885,28.60
-3825,2486,339,-658,385,3943,28.62
-3690,2245,326,-685,359,3987,28.63
-3556,2040,293,-721,310,4009,28.64
-3420,1886,244,-762,268,4006,28.62
-3275,1789,186,-802,245,4003,28.62
-3122,1770,117,-837,227,4018,28.62
-2974,1773,37,-867,181,4055,28.62
-2830,1749,-61,-879,118,4100,28.62
-2683,1688,-176,-896,48,4114,28.61
-2524,1633,-298,-935,-3,4104,28.63
-2376,1616,-421,-965,-25,4117,28.61
-2239,1629,-555,-1004,-29,4132,28.63
-2104,1650,-694,-977,-10,4128,28.63
-1961,1645,-807,-928,33,4102,28.62
-1802,1588,-872,-854,96,4101,28.61
-1633,1451,-909,-772,160,4104,28.59
-1472,1235,-921,-714,210,4123,28.61
-1318,956,-902,-682,250,4145,28.62
-1189,629,-857,-672,257,4159,28.61
-1046,193,-794,-701,228,4142,28.61
-930,-142,-739,-741,194,4102,28.63
-830,-428,-672,-787,178,4073,28.62
-752,-664,-617,-848,155,4051,28.62
-706,-820,-554,-926,139,4026,28.63
-678,-915,-496,-977,153,3993,28.62
-661,-919,-435,-1039,154,3961,28.62
-662,-848,-374,-1071,166,3958,28.62
-666,-745,-302,-1091,159,3937,28.63
-675,-625,-225,-1088,157,3916,28.62
-679,-552,-144,-1078,122,3949,28.63
-684,-523,-60,-1069,87,3957,28.63
-677,-505,13,-1097,63,3947,28.63
-663,-448,83,-1142,47,3930,28.61
-651,-327,141,-1194,31,3889,28.63
-631,-160,199,-1227,13,3858,28.62
-617,24,236,-1228,-9,3854,28.63
-613,199,275,-1216,-8,3853,28.63
-623,367,319,-1198,23,3844,28.63
-650,531,357,-1166,45,3852,28.63
-684,664,397,-1146,36,3868,28.61
-709,766,435,-1121,18,3874,28.63
-733,815,468,-1089,-18,3881,28.64
-739,818,489,-1049,-19,3893,28.62
-729,776,520,-986,1,3874,28.63
-704,679,561,-936,45,3881,28.62
-697,546,609,-888,91,3910,28.62
-700,379,657,-858,121,3940,28.61
-716,204,687,-859,118,3918,28.63
-724,41,720,-867,96,3896,28.62
-709,-71,742,-898,75,3853,28.63
-670,-114,748,-939,54,3812,28.63
-627,-83,736,-982,57,3804,28.63
-582,13,711,-986,67,3814,28.63
-556,100,672,-956,79,3858,28.61
-536,129,622,-912,76,3891,28.61
-519,87,586,-851,66,3924,28.62
-523,-1,550,-832,37,3952,28.62
-524,-85,507,-862,40,3938,28.63
-527,-123,452,-895,30,3922,28.63
-526,-108,388,-930,19,3924,28.62
-515,-46,300,-952,11,3892,28.62
-483,42,217,-953,22,3887,28.62
-464,124,145,-927,25,3905,28.60
-436,177,76,-895,-4,3903,28.63
-402,207,1,-916,-40,3895,28.62
-365,257,-84,-938,-54,3867,28.64
-312,333,-170,-939,-64,3863,28.62
-260,399,-250,-922,-80,3855,28.61
-217,419,-329,-891,-57,3855,28.63
-179,402,-384,-843,-36,3852,28.64
-146,335,-426,-803,-2,3863,28.63
-137,229,-459,-780,0,3875,28.64
-124,82,-476,-774,4,3885,28.63
-127,-72,-492,-790,2,3875,28.64
-129,-200,-518,-818,-8,3871,28.62
-129,-277,-551,-872,-31,3865,28.61
-117,-306,-596,-910,-42,3850,28.62
-110,-261,-652,-964,-63,3834,28.64
-115,-177,-717,-1014,-83,3845,28.63
-133,-37,-792,-1043,-78,3850,28.64
-168,123,-866,-1058,-61,3841,28.62
-209,306,-932,-1038,-71,3847,28.61
-246,444,-980,-1015,-77,3851,28.62
-290,547,-1027,-1010,-79,3838,28.63
-319,621,-1071,-991,-75,3852,28.62
-342,664,-1102,-980,-65,3842,28.62
-370,674,-1112,-968,-44,3858,28.62
-398,643,-1115,-978,-20,3878,28.63
-429,613,-1100,-979,6,3901,28.63
-472,580,-1075,-980,4,3924,28.64
-512,523,-1055,-976,4,3922,28.63
-540,437,-1023,-980,-12,3922,28.63
-560,353,-993,-981,-56,3916,28.62
-555,290,-956,-1039,-92,3899,28.64
-527,261,-944,-1081,-115,3884,28.63
-494,276,-927,-1118,-118,3876,28.62
-467,301,-917,-1108,-135,3930,28.61
-434,253,-904,-1064,-140,3975,28.61
-383,129,-880,-1012,-127,3990,28.61
-314,-46,-841,-972,-99,4013,28.63
-253,-220,-785,-976,-66,4029,28.64
-193,-383,-728,-979,-28,4013,28.64
-128,-529,-666,-981,2,3996,28.63
-61,-675,-595,-980,25,4006,28.62
23,-828,-486,-949,14,4018,28.62
93,-970,-397,-973,-15,3993,28.61
201,-1103,-311,-959,-20,3928,28.63
315,-1210,-234,-964,-8,3928,28.62
425,-1345,-152,-947,31,3946,28.62
498,-1481,-70,-923,30,3994,28.63
548,-1651,7,-866,35,4027,28.64
575,-1900,99,-797,38,4048,28.64
583,-2201,187,-769,13,4067,28.65
596,-2537,270,-773,-26,4067,28.64
594,-2856,336,-837,-79,4050,28.63
601,-3120,372,-900,-138,4016,28.65
602,-3279,385,-973,-203,3961,28.64
611,-3315,379,-1039,-247,3908,28.63
611,-3251,357,-1084,-263,3867,28.62
606,-3108,316,-1085,-231,3838,28.63
582,-2943,288,-1039,-192,3849,28.63
530,-2805,263,-980,-148,3902,28.64
469,-2730,257,-934,-109,3932,28.63
411,-2705,261,-876,-70,3925,28.62
376,-2719,283,-807,-28,3929,28.61
364,-2765,316,-757,21,3934,28.61
366,-2857,364,-704,51,3978,28.62
371,-2982,428,-662,87,3995,28.64
374,-3125,501,-631,131,4007,28.62
377,-3259,586,-612,126,4024,28.62
394,-3399,667,-617,120,4027,28.62
433,-3515,742,-612,116,4003,28.63
487,-3624,820,-589,124,4007,28.61
555,-3740,898,-558,97,4002,28.62
631,-3913,966,-540,76,4012,28.62
706,-4097,1022,-535,59,4040,28.63
763,-4271,1080,-525,32,4040,28.63
816,-4461,1129,-517,26,4057,28.63
853,-4692,1165,-504,11,4072,28.62
886,-4944,1192,-494,-23,4060,28.62
927,-5164,1220,-523,-39,4029,28.63
956,-5342,1233,-518,-72,4015,28.65
971,-5504,1236,-493,-113,4034,28.63
969,-5715,1241,-428,-123,4079,28.62
958,-5948,1246,-338,-97,4134,28.63
928,-6314,1264,-228,-76,4200,28.63
878,-6795,1286,-177,-96,4243,28.62
803,-7434,1298,-223,-123,4210,28.63
765,-7805,1268,-326,-136,4087,28.63
768,-7952,1238,-406,-134,3994,28.62
796,-7924,1203,-457,-109,3956,28.64
826,-7784,1174,-445,-66,3975,28.64
844,-7609,1144,-375,-23,4039,28.65
852,-7509,1132,-261,0,4089,28.64
846,-7531,1141,-139,21,4163,28.62
835,-7651,1162,-74,40,4175,28.63
828,-7794,1191,-92,36,4099,28.62
853,-7832,1196,-183,50,3956,28.62
925,-7668,1195,-273,73,3807,28.64
1026,-7299,1188,-307,77,3721,28.64
1122,-6840,1183,-256,102,3688,28.63
1211,-6381,1195,-131,133,3734,28.63
1259,-6175,1220,24,154,3819,28.65
1279,-6103,1264,145,158,3863,28.65
1275,-5999,1317,185,156,3833,28.65
1277,-5928,1360,225,180,3778,28.64
1278,-5828,1408,281,227,3754,28.62
1281,-5738,1465,379,297,3786,28.63
1267,-5733,1532,516,372,3865,28.61
1245,-5865,1606,665,425,3964,28.62
1218,-6173,1683,792,427,4061,28.63
1200,-6586,1751,802,418,4047,28.63
1206,-6934,1794,772,382,4049,28.64
1240,-7203,1827,730,333,4051,28.66
1288,-7349,1825,637,283,4040,28.67
1361,-7360,1780,584,203,4042,28.64
1439,-7292,1701,532,114,4067,28.63
1528,-7152,1595,457,-4,4051,28.64
1625,-6925,1444,363,-119,4011,28.65
1733,-6526,1248,234,-191,3905,28.63
1846,-5958,1039,135,-201,3822,28.62
1934,-5183,823,127,-160,3789,28.63
1995,-4411,625,216,-136,3832,28.63
2009,-3825,456,418,-114,3968,28.63
1979,-3514,329,626,-82,4047,28.64
1920,-3417,248,767,-44,4086,28.64
1843,-3485,211,849,-2,4080,28.61
1777,-3625,186,877,57,3995,28.63
1729,-3715,182,836,133,3884,28.64
1692,-3677,202,799,221,3782,28.62
1668,-3515,245,822,330,3726,28.65
1661,-3429,306,940,383,3744,28.64
1676,-3519,389,1115,425,3808,28.63
1696,-3847,508,1283,467,3882,28.62
1731,-4359,653,1394,510,3945,28.64
1753,-4957,804,1435,589,3952,28.64
1773,-5567,959,1432,654,3930,28.62
1810,-6083,1106,1450,692,3959,28.59
1832,-6656,1249,1497,699,4014,28.60
1846,-7303,1397,1565,657,4084,28.64
1852,-8035,1538,1590,618,4109,28.63
1850,-8781,1667,1549,581,4105,28.62
1834,-9427,1788,1432,500,4060,28.62
1790,-9836,1890,1266,418,3965,28.62
1715,-9974,1967,1066,318,3876,28.64
1603,-9804,2024,873,249,3778,28.64
1451,-9373,2047,695,162,3661,28.63
1270,-8732,2050,573,64,3595,28.62
1060,-7956,2018,494,-26,3527,28.64
822,-7089,1984,486,-82,3453,28.60
559,-6202,1965,514,-90,3376,28.62
271,-5320,1968,592,-80,3361,28.59
-31,-4566,1996,717,-86,3378,28.62
-345,-3982,2038,831,-95,3369,28.62
-639,-3530,2074,852,-47,3247,28.61
-848,-3102,2098,913,104,3089,28.62
-955,-2710,2162,1131,288,3028,28.63
-990,-2503,2283,1409,429,3115,28.63
-1008,-2620,2442,1674,530,3313,28.62
-1033,-3053,2618,1870,584,3461,28.62
-1056,-3637,2802,1961,625,3481,28.63
-1047,-4211,2978,1962,677,3420,28.62
-1001,-4671,3147,1969,727,3397,28.63
-949,-5075,3306,2050,719,3444,28.65
-915,-5507,3459,2127,634,3563,28.63
-889,-6003,3569,2166,524,3663,28.64
-868,-6606,3643,2165,388,3670,28.62
-845,-7134,3661,2104,292,3637,28.64
-822,-7499,3635,1998,221,3582,28.65
-805,-7665,3571,1913,164,3538,28.64
-825,-7673,3480,1853,120,3493,28.64
-850,-7555,3346,1822,55,3466,28.62
-887,-7361,3208,1814,-15,3448,28.62
-950,-7103,3059,1817,-54,3433,28.63
-1059,-6709,2861,1837,-86,3381,28.64
-1162,-6323,2706,1885,-70,3351,28.63
-1270,-6075,2573,1959,-51,3323,28.62
-1381,-5796,2465,2047,-54,3329,28.61
-1473,-5598,2361,2105,-101,3303,28.63
-1534,-5489,2240,2127,-151,3241,28.62
-1550,-5405,2100,2075,-157,3129,28.62
-1510,-5230,1926,2029,-112,2972,28.62
-1439,-4948,1740,2040,-50,2879,28.62
-1347,-4633,1564,2144,20,2865,28.62
-1269,-4367,1416,2303,94,2925,28.61
-1215,-4257,1300,2493,143,3036,28.62
-1193,-4395,1203,2713,161,3173,28.61
-1209,-4828,1119,2906,148,3294,28.62
-1223,-5523,1051,3027,123,3363,28.63
-1239,-6226,982,3039,122,3342,28.63
-1247,-6903,890,3008,133,3297,28.62
-1262,-7462,792,2968,140,3226,28.62
-1288,-7908,693,2974,107,3207,28.62
-1331,-8311,591,3007,66,3206,28.61
-1381,-8738,486,3031,18,3193,28.61
-1461,-9122,377,2995,-38,3175,28.62
-1572,-9394,251,2906,-81,3109,28.62
-1702,-9457,115,2799,-106,3018,28.62
-1844,-9324,-14,2733,-114,2929,28.62
-1987,-9098,-151,2714,-137,2908,28.65
-2132,-8856,-286,2725,-157,2920,28.65
-2271,-8628,-419,2725,-180,2901,28.64
-2404,-8383,-553,2667,-177,2832,28.64
-2518,-8000,-683,2574,-150,2741,28.61
-2619,-7413,-797,2510,-127,2656,28.63
-2686,-6756,-910,2526,-96,2656,28.64
-2729,-6248,-1019,2647,-115,2758,28.64
-2747,-5902,-1115,2743,-145,2853,28.61
-2768,-5524,-1195,2697,-147,2819,28.64
-2745,-5079,-1270,2629,-148,2718,28.62
-2663,-4585,-1369,2572,-134,2667,28.61
-2527,-4081,-1469,2597,-125,2654,28.63
-2360,-3645,-1559,2684,-94,2683,28.62
-2164,-3379,-1621,2835,-41,2786,28.62
-1986,-3364,-1656,3017,0,2941,28.63
-1829,-3586,-1679,3143,12,3056,28.63
-1701,-3975,-1690,3176,10,3081,28.64
-1547,-4468,-1705,3096,11,3008,28.63
-1415,-4755,-1717,3000,-1,2922,28.62
-1288,-4882,-1735,2912,24,2855,28.62
-1143,-4863,-1746,2865,74,2755,28.63
-993,-4769,-1730,2905,121,2709,28.62
-841,-4727,-1693,2982,143,2753,28.64
-696,-4827,-1651,3055,133,2822,28.61
-562,-5057,-1614,3074,108,2835,28.62
-436,-5354,-1590,3054,72,2811,28.65
-320,-5611,-1551,3019,50,2767,28.65
-230,-5731,-1498,2930,18,2730,28.64
-166,-5692,-1445,2848,-12,2688,28.62
-113,-5569,-1384,2849,-43,2664,28.62
-70,-5423,-1308,2874,-53,2675,28.62
-42,-5280,-1221,2897,-52,2723,28.63
-44,-5143,-1123,2897,-62,2734,28.64
-50,-4986,-1020,2901,-73,2698,28.62
-53,-4845,-919,2919,-87,2674,28.62
-52,-4757,-829,2937,-94,2636,28.62
-34,-4678,-743,2968,-76,2579,28.62
-12,-4593,-649,2989,-44,2542,28.62
10,-4498,-546,2997,-13,2500,28.64
39,-4403,-438,3022,-15,2453,28.66
86,-4377,-321,3105,-19,2434,28.67
143,-4466,-196,3180,0,2448,28.64
205,-4670,-71,3230,29,2429,28.63
266,-4907,60,3223,66,2346,28.64
316,-5088,196,3185,104,2250,28.64
375,-5160,330,3140,118,2170,28.63
423,-5126,458,3083,95,2065,28.62
458,-4999,579,3060,98,1990,28.62
475,-4811,699,3086,76,1981,28.63
465,-4684,809,3173,30,2028,28.62
417,-4707,915,3280,-21,2078,28.62
348,-4848,1014,3320,-81,2063,28.62
272,-5031,1096,3304,-127,2004,28.62
207,-5147,1158,3250,-149,1879,28.62
149,-5172,1192,3242,-132,1826,28.62
87,-5218,1202,3303,-136,1782,28.62
14,-5308,1210,3374,-140,1778,28.62
-81,-5426,1217,3417,-135,1753,28.64
-203,-5494,1220,3423,-115,1711,28.64
-345,-5485,1233,3428,-83,1661,28.61
-499,-5409,1243,3451,-79,1626,28.62
-706,-5235,1272,3475,-116,1580,28.64
-875,-5116,1279,3506,-146,1579,28.64
-1046,-5061,1263,3515,-168,1594,28.63
-1200,-5032,1217,3492,-212,1561,28.61
-1347,-4931,1160,3453,-234,1503,28.62
-1461,-4732,1101,3453,-221,1476,28.63
-1557,-4524,1037,3507,-212,1509,28.63
-1639,-4434,979,3581,-225,1581,28.65
-1723,-4505,910,3649,-265,1653,28.65
-1803,-4656,837,3653,-328,1682,28.63
-1874,-4771,747,3617,-352,1640,28.63
-1922,-4779,662,3554,-339,1567,28.64
-1950,-4682,568,3535,-316,1525,28.64
-1972,-4548,483,3560,-306,1576,28.62
-2008,-4427,389,3594,-344,1627,28.63
-2062,-4343,304,3622,-387,1693,28.64
-2124,-4262,221,3622,-423,1697,28.65
-2186,-4156,141,3612,-424,1670,28.63
-2233,-4023,64,3637,-403,1647,28.64
-2268,-3912,8,3729,-389,1697,28.63
-2292,-4072,-50,3938,-412,1838,28.65
-2337,-4537,-99,4026,-409,1883,28.64
-2401,-4894,-111,3936,-366,1777,28.62
-2449,-5013,-120,3778,-317,1597,28.64
-2456,-4865,-117,3663,-252,1414,28.64
-2423,-4530,-111,3630,-204,1306,28.63
-2348,-4158,-114,3635,-159,1257,28.62
-2247,-3844,-122,3707,-152,1283,28.64
-2146,-3635,-131,3777,-148,1343,28.65
-2063,-3487,-130,3813,-165,1370,28.63
-1989,-3355,-126,3833,-190,1386,28.64
-1915,-3239,-128,3835,-217,1382,28.62
-1842,-3129,-134,3814,-216,1384,28.65
-1768,-3016,-145,3815,-222,1404,28.64
-1704,-2903,-155,3844,-214,1424,28.64
-1641,-2839,-140,3889,-202,1463,28.62
-1580,-2855,-118,3938,-214,1486,28.62
-1511,-2944,-82,3938,-210,1508,28.62
-1431,-3071,-61,3916,-213,1494,28.63
-1341,-3201,-51,3874,-221,1462,28.63
-1247,-3270,-46,3811,-214,1397,28.64
-1141,-3245,-40,3780,-200,1338,28.62
-1019,-3172,-25,3796,-167,1322,28.60
-895,-3159,3,3858,-129,1323,28.62
-754,-3283,43,3938,-133,1364,28.63
-657,-3461,77,3949,-139,1357,28.63
-585,-3636,126,3937,-139,1321,28.63
-523,-3732,175,3904,-147,1285,28.65
-478,-3734,239,3869,-133,1252,28.63
-430,-3644,318,3841,-143,1188,28.66
-376,-3500,396,3834,-173,1148,28.66
-331,-3367,475,3837,-206,1166,28.65
-297,-3237,548,3845,-239,1168,28.67
-270,-3226,611,3881,-259,1206,28.64
-244,-3286,662,3878,-277,1194,28.63
-207,-3328,722,3839,-270,1134,28.64
-165,-3277,782,3792,-251,1061,28.64
-118,-3121,857,3790,-198,1028,28.62
-62,-2970,955,3865,-158,1015,28.63
4,-2985,1067,3979,-174,1094,28.64
74,-3264,1158,4055,-189,1142,28.64
142,-3697,1211,4014,-244,1105,28.65
219,-4068,1224,3879,-283,963,28.63
316,-4188,1209,3737,-259,753,28.64
427,-4017,1193,3676,-225,624,28.64
516,-3696,1181,3710,-230,606,28.63
568,-3422,1150,3767,-315,666,28.63
557,-3240,1088,3795,-419,695,28.63
505,-3089,988,3790,-526,687,28.64
409,-2870,886,3784,-574,640,28.62
286,-2587,779,3840,-566,618,28.63
143,-2326,691,3941,-543,626,28.65
-6,-2154,625,4084,-516,650,28.65
-161,-2140,563,4220,-483,706,28.65
-309,-2297,507,4291,-470,723,28.66
-447,-2546,432,4300,-471,679,28.62
-563,-2813,330,4272,-457,646,28.62
-647,-3048,222,4249,-425,585,28.64
-716,-3207,115,4244,-398,532,28.63
-776,-3337,27,4251,-388,546,28.64
-861,-3457,-63,4247,-401,543,28.64
-947,-3536,-159,4178,-414,486,28.63
-1033,-3519,-272,4095,-438,444,28.62
-1099,-3387,-400,4017,-465,401,28.62
-1197,-3145,-568,3942,-506,426,28.62
-1281,-2932,-702,3896,-520,446,28.63
-1365,-2691,-826,3874,-507,443,28.62
-1443,-2407,-922,3873,-483,449,28.63
-1505,-2080,-970,3911,-449,506,28.62
-1566,-1817,-986,3968,-417,604,28.61
-1600,-1700,-974,4054,-413,688,28.61
-1612,-1772,-949,4112,-393,768,28.63
-1602,-1999,-920,4125,-374,807,28.64
-1574,-2288,-881,4109,-349,813,28.65
-1528,-2562,-831,4072,-317,774,28.64
-1453,-2756,-764,4032,-267,714,28.64
-1352,-2867,-678,4010,-225,676,28.63
-1231,-2977,-585,4032,-179,681,28.65
-1085,-3175,-488,4064,-163,680,28.63
-953,-3433,-375,4058,-164,658,28.63
-843,-3637,-251,4023,-162,627,28.61
-765,-3721,-99,3982,-153,573,28.63
-695,-3710,59,3927,-167,500,28.67
-627,-3639,220,3905,-204,460,28.66
-575,-3560,368,3897,-260,433,28.69
-529,-3535,488,3896,-315,430,28.66
-496,-3567,564,3879,-374,429,28.66
-487,-3576,619,3850,-392,388,28.65
-489,-3473,672,3822,-356,293,28.63
-490,-3229,736,3815,-309,200,28.64
-481,-2911,811,3828,-299,137,28.62
-477,-2576,881,3854,-320,128,28.64
-479,-2283,934,3873,-356,148,28.63
-483,-2018,978,3874,-400,114,28.61
-496,-1783,1004,3894,-438,106,28.63
-507,-1608,1021,3959,-437,107,28.63
-525,-1542,1044,4027,-425,124,28.65
-550,-1570,1059,4059,-433,109,28.64
-598,-1614,1083,4067,-417,99,28.66
-658,-1626,1122,4049,-379,29,28.65
-723,-1574,1176,4034,-353,-22,28.65
-778,-1497,1234,4041,-359,-61,28.67
-837,-1459,1289,4066,-373,-39,28.65
-903,-1498,1330,4077,-406,-3,28.64
-976,-1586,1351,4051,-437,22,28.62
-1064,-1626,1375,3980,-460,-10,28.65
-1106,-1521,1381,3926,-478,-47,28.64
-1127,-1357,1376,3930,-492,-30,28.62
-1122,-1222,1360,3933,-510,6,28.65
-1123,-1162,1319,3949,-547,48,28.66
-1115,-1108,1255,3942,-540,53,28.64
-1103,-998,1206,3951,-533,52,28.66
-1090,-858,1158,3989,-527,99,28.64
-1078,-763,1124,4062,-526,150,28.62
-1074,-751,1108,4127,-520,198,28.62
-1056,-841,1098,4184,-520,224,28.64
-1039,-976,1104,4212,-519,243,28.65
-1020,-1096,1119,4184,-523,220,28.65
-1004,-1194,1130,4123,-549,175,28.64
-980,-1216,1126,4052,-567,121,28.62
-954,-1158,1114,3977,-579,82,28.61
-935,-1034,1080,3937,-563,65,28.63
-917,-897,1022,3917,-589,57,28.63
-885,-834,941,3932,-623,58,28.63
-840,-879,832,3949,-640,68,28.64
-790,-1014,708,3977,-631,70,28.63
-743,-1153,596,3995,-590,17,28.64
-688,-1229,521,4001,-508,-56,28.64
-624,-1203,486,4008,-454,-109,28.65
-566,-1096,484,4025,-429,-148,28.63
-501,-970,515,4042,-425,-149,28.62
-456,-882,547,4059,-436,-136,28.61
-443,-829,583,4071,-490,-108,28.62
-450,-737,613,4043,-557,-95,28.65
-474,-624,640,4019,-586,-95,28.62
-503,-522,651,4031,-592,-95,28.63
-533,-466,660,4108,-586,-54,28.64
-558,-483,693,4222,-545,-32,28.62
-589,-597,744,4330,-545,36,28.62
-623,-813,784,4383,-550,72,28.61
-650,-1054,809,4373,-582,46,28.63
-669,-1269,803,4308,-615,19,28.62
-678,-1398,755,4236,-636,-39,28.65
-680,-1437,663,4144,-656,-99,28.63
-672,-1371,531,4063,-688,-165,28.64
-657,-1185,318,3998,-744,-196,28.64
-645,-1017,107,3972,-759,-196,28.65
-639,-856,-111,3951,-794,-188,28.66
-642,-705,-330,3964,-798,-165,28.63
-658,-532,-510,3989,-768,-151,28.64
-689,-365,-644,4031,-715,-144,28.64
-710,-221,-730,4083,-670,-129,28.64
-717,-149,-779,4134,-627,-76,28.63
-735,-166,-785,4189,-594,-17,28.61
-761,-272,-769,4202,-596,23,28.63
-783,-401,-733,4168,-605,47,28.65
-793,-489,-692,4101,-614,26,28.64
-782,-571,-663,4052,-587,41,28.63
-740,-679,-652,4011,-559,38,28.65
-685,-774,-650,3981,-518,17,28.65
-620,-805,-654,3927,-503,-49,28.66
-544,-745,-657,3857,-517,-105,28.63
-453,-616,-671,3831,-524,-119,28.62
-377,-467,-686,3831,-524,-118,28.64
-316,-343,-674,3888,-496,-108,28.62
-252,-289,-653,3938,-481,-88,28.64
-210,-285,-605,3945,-486,-96,28.63
-189,-227,-532,3896,-498,-103,28.64
-175,-75,-452,3822,-505,-138,28.63
-173,123,-367,3776,-543,-157,28.65
-174,339,-279,3755,-552,-150,28.63
-190,555,-190,3747,-563,-144,28.66
-207,770,-81,3741,-553,-151,28.65
-235,984,55,3770,-532,-120,28.65
-258,1168,241,3852,-485,-74,28.65
-284,1257,458,3928,-453,-15,28.64
-298,1236,677,3985,-435,4,28.67
-280,1102,885,4045,-396,-7,28.65
-240,890,1092,4127,-340,9,28.62
-187,613,1291,4176,-305,-4,28.62
-131,337,1467,4192,-315,-30,28.63
-71,93,1611,4181,-360,-76,28.64
-19,-123,1717,4149,-406,-104,28.64
28,-314,1761,4123,-474,-140,28.62
61,-451,1756,4073,-527,-187,28.63
71,-483,1714,3992,-585,-234,28.64
45,-377,1652,3974,-635,-263,28.63
1,-198,1573,3966,-684,-286,28.61
-54,18,1485,3993,-700,-257,28.63
-111,178,1379,4027,-712,-232,28.63
-170,269,1262,4066,-741,-179,28.63
-226,299,1134,4086,-763,-142,28.64
-269,296,984,4072,-780,-155,28.63
-294,303,828,4061,-780,-161,28.64
-302,362,674,4068,-762,-145,28.63
-299,467,531,4075,-738,-143,28.62
-288,612,402,4051,-722,-129,28.61
-266,764,263,4017,-727,-90,28.64
-240,939,108,3970,-735,-81,28.63
-178,1162,-56,3906,-727,-97,28.64
-97,1460,-217,3844,-724,-124,28.64
0,1790,-386,3816,-706,-83,28.65
115,2129,-548,3781,-693,-57,28.64
234,2500,-690,3750,-696,-52,28.62
362,2885,-811,3754,-673,-21,28.63
491,3231,-898,3777,-634,33,28.64
631,3532,-937,3829,-584,73,28.62
783,3774,-923,3866,-524,125,28.62
923,3977,-869,3885,-495,182,28.65
1069,4171,-779,3866,-474,212,28.64
1213,4384,-678,3833,-473,204,28.63
1368,4633,-554,3808,-461,209,28.64
1534,4889,-403,3821,-428,226,28.66
1704,5116,-241,3849,-418,240,28.64
1874,5294,-71,3890,-414,281,28.65
2048,5389,115,3962,-408,327,28.65
2204,5384,306,4050,-402,393,28.65
2333,5264,487,4115,-431,447,28.64
2439,5032,648,4129,-501,498,28.62
2513,4753,784,4134,-558,503,28.62
2570,4519,911,4134,-577,512,28.64
2610,4317,1034,4183,-611,515,28.62
2641,4065,1140,4237,-644,560,28.62
2666,3682,1220,4294,-686,586,28.64
2681,3222,1253,4276,-708,565,28.64
2681,2825,1239,4167,-710,457,28.64
2677,2627,1193,4027,-703,320,28.65
2661,2665,1114,3932,-691,219,28.63
2616,2952,1009,3879,-679,134,28.62
2558,3243,921,3870,-702,141,28.64
2476,3525,820,3883,-734,158,28.62
2373,3813,731,3890,-767,198,28.65
2252,4103,658,3910,-791,242,28.63
2106,4366,593,3947,-799,301,28.65
1956,4573,547,3964,-824,382,28.64
1792,4721,512,3993,-843,437,28.64
1630,4859,502,4040,-826,465,28.63
1495,4949,524,4106,-766,511,28.62
1377,4929,549,4166,-738,599,28.64
1276,4760,568,4205,-716,675,28.66
1191,4525,577,4223,-697,717,28.65
1130,4310,598,4194,-677,701,28.65
1101,4191,626,4146,-655,697,28.64
1104,4151,636,4103,-644,684,28.64
1125,4127,647,4097,-637,703,28.63
1158,4055,629,4089,-634,749,28.64
1194,3950,591,4060,-668,772,28.63
1229,3870,534,4009,-695,775,28.63
1253,3865,474,3994,-675,768,28.63
1275,3921,421,3997,-657,785,28.65
1296,3945,367,4009,-661,816,28.63
1302,3892,309,4021,-685,862,28.64
1301,3809,230,3989,-712,864,28.64
1293,3780,148,3937,-699,839,28.64
1273,3896,83,3883,-670,793,28.64
1258,4142,37,3854,-644,765,28.64
1245,4439,17,3939,-594,792,28.62
1234,4651,33,4059,-534,872,28.64
1233,4662,82,4208,-539,983,28.63
1236,4423,117,4310,-575,1086,28.64
1243,3996,133,4310,-623,1137,28.63
1250,3542,119,4243,-650,1127,28.63
1249,3197,87,4144,-650,1083,28.63
1262,3040,25,4018,-623,1018,28.64
1286,3058,-48,3919,-633,943,28.64
1332,3179,-149,3830,-646,922,28.65
1395,3341,-279,3761,-695,944,28.64
1454,3526,-447,3701,-718,954,28.64
1504,3771,-615,3636,-749,965,28.64
1543,4065,-791,3580,-775,1000,28.64
1574,4383,-964,3547,-780,1045,28.64
1604,4779,-1173,3511,-757,1067,28.65
1637,5079,-1329,3491,-730,1075,28.64
1684,5391,-1451,3459,-673,1094,28.63
1732,5751,-1529,3450,-599,1095,28.63
1777,6119,-1561,3449,-551,1134,28.63
1810,6476,-1551,3481,-533,1208,28.64
1828,6765,-1489,3525,-499,1285,28.65
1852,6976,-1372,3600,-439,1352,28.64
1864,7088,-1197,3676,-367,1435,28.64
1880,7076,-990,3727,-316,1490,28.64
1897,6976,-757,3736,-304,1542,28.64
1914,6854,-516,3717,-305,1561,28.65
1926,6704,-273,3681,-325,1584,28.63
1937,6521,-46,3662,-347,1626,28.65
1943,6294,169,3658,-404,1695,28.62
1936,5996,366,3643,-460,1729,28.64
1926,5719,535,3579,-523,1735,28.64
1907,5511,681,3488,-551,1701,28.64
1885,5416,794,3406,-559,1657,28.64
1853,5442,906,3387,-533,1640,28.63
1827,5508,1014,3405,-528,1658,28.65
1811,5516,1099,3439,-542,1711,28.64
1804,5435,1165,3478,-559,1765,28.64
1808,5295,1205,3505,-560,1809,28.65
1808,5148,1228,3484,-556,1829,28.64
1823,5055,1216,3448,-567,1821,28.63
1845,5033,1181,3395,-587,1821,28.64
1873,5100,1120,3353,-595,1785,28.65
1907,5234,1042,3322,-600,1791,28.64
1938,5413,935,3275,-610,1804,28.64
1976,5618,809,3214,-644,1828,28.62
2017,5896,673,3167,-657,1868,28.64
2054,6264,534,3097,-634,1864,28.64
2086,6740,403,3054,-584,1875,28.62
2131,7296,290,3029,-559,1880,28.62
2208,7873,199,3049,-499,1918,28.63
2297,8398,136,3126,-457,2004,28.64
2384,8785,80,3211,-413,2131,28.65
2470,8981,51,3293,-392,2252,28.66
2547,9032,36,3347,-387,2308,28.64
2621,9011,40,3378,-350,2349,28.63
2691,8982,60,3381,-304,2386,28.63
2801,8944,114,3431,-212,2393,28.62
2881,8856,204,3538,-175,2482,28.64
2952,8580,315,3664,-215,2619,28.62
2990,7996,419,3791,-336,2781,28.63
3009,7121,487,3839,-446,2871,28.64
2998,6124,518,3768,-512,2862,28.66
2966,5211,506,3646,-531,2797,28.62
2914,4488,467,3465,-547,2676,28.63
2853,4018,396,3310,-550,2558,28.62
2799,3785,309,3170,-539,2458,28.62
2731,3768,219,3065,-541,2405,28.63
2645,3872,136,2981,-531,2378,28.61
2557,4046,52,2942,-524,2385,28.62
2451,4244,-36,2904,-520,2391,28.64
2333,4472,-122,2848,-546,2406,28.63
2212,4738,-220,2765,-573,2421,28.62
2086,5062,-327,2669,-562,2390,28.63
1964,5506,-429,2587,-523,2342,28.64
1852,6079,-519,2541,-451,2350,28.65
1747,6712,-584,2538,-417,2372,28.65
1663,7275,-627,2598,-396,2465,28.64
1607,7670,-670,2634,-380,2537,28.62
1567,7971,-705,2618,-358,2580,28.62
1536,8260,-736,2568,-350,2614,28.62
1518,8596,-770,2477,-313,2589,28.64
1533,9034,-794,2436,-261,2592,28.65
1559,9522,-798,2464,-201,2650,28.64
1602,9935,-774,2557,-186,2767,28.65
1652,10121,-737,2677,-169,2938,28.64
1697,10053,-692,2790,-154,3112,28.64
1730,9825,-624,2843,-154,3165,28.63
1768,9573,-548,2856,-120,3210,28.64
1804,9304,-442,2912,-56,3258,28.65
1848,8984,-301,2984,-3,3308,28.64
1892,8563,-144,3040,28,3387,28.64
1925,8029,20,3060,12,3449,28.64
1951,7421,173,3008,-23,3497,28.63
1976,6802,289,2926,-73,3522,28.66
2002,6256,376,2838,-111,3491,28.67
2043,5789,428,2714,-125,3414,28.66
2102,5458,439,2563,-131,3336,28.63
2169,5318,400,2402,-150,3243,28.64
2257,5399,299,2198,-204,3142,28.65
2323,5631,181,2078,-254,3112,28.63
2364,5987,44,1989,-268,3107,28.63
2389,6428,-110,1951,-251,3094,28.63
2401,6906,-251,1955,-232,3096,28.63
2400,7342,-366,2014,-216,3166,28.63
2379,7644,-464,2106,-202,3291,28.64
2313,7723,-547,2255,-222,3443,28.62
2219,7534,-598,2407,-237,3592,28.66
2092,7127,-624,2557,-243,3695,28.65
1956,6507,-623,2640,-216,3746,28.63
1825,5825,-608,2664,-168,3718,28.64
1706,5119,-582,2675,-101,3689,28.64
1615,4436,-547,2653,-51,3618,28.62
1553,3828,-508,2585,2,3537,28.63
1509,3336,-483,2489,70,3427,28.64
1479,3015,-467,2386,89,3296,28.64
1466,2856,-474,2272,85,3215,28.64
1451,2798,-496,2190,60,3184,28.63
1429,2796,-541,2137,28,3152,28.64
1386,2841,-597,2093,3,3138,28.64
1323,2929,-659,2072,-37,3132,28.63
1245,3020,-729,2038,-89,3154,28.65
1136,3102,-811,1994,-156,3200,28.66
997,3169,-913,1924,-204,3206,28.63
847,3300,-1019,1813,-189,3184,28.63
686,3539,-1127,1709,-151,3169,28.62
526,3902,-1218,1643,-113,3134,28.64
377,4353,-1291,1595,-81,3106,28.63
253,4847,-1344,1566,-44,3080,28.66
161,5355,-1376,1555,-18,3085,28.65
87,5880,-1385,1539,25,3125,28.65
13,6382,-1378,1532,74,3177,28.64
-57,6896,-1364,1519,115,3232,28.65
-114,7373,-1332,1526,163,3279,28.64
-137,7846,-1304,1518,185,3324,28.66
-135,8255,-1267,1569,218,3410,28.67
-114,8535,-1214,1682,250,3526,28.65
-91,8594,-1150,1826,254,3705,28.66
-64,8358,-1078,1990,221,3894,28.67
-32,7838,-1001,2115,181,4035,28.67
6,7103,-931,2161,178,4111,28.68
77,6137,-876,2074,190,4089,28.66
146,5503,-854,1925,188,3997,28.67
226,5083,-865,1777,163,3913,28.64
330,4823,-907,1631,137,3845,28.66
454,4696,-968,1548,135,3793,28.66
586,4649,-1034,1503,156,3803,28.65
711,4640,-1103,1472,171,3846,28.67
811,4661,-1164,1441,167,3883,28.67
903,4722,-1230,1373,137,3933,28.66
975,4843,-1322,1268,92,3924,28.69
1040,5031,-1439,1145,51,3909,28.68
1112,5294,-1581,1022,19,3889,28.64
1178,5629,-1755,891,-23,3849,28.63
1253,6037,-1942,795,-58,3836,28.66
1320,6495,-2119,755,-61,3831,28.67
1386,6953,-2260,758,-1,3864,28.65
1425,7382,-2365,786,61,3926,28.64
1444,7747,-2433,806,94,3987,28.66
1470,7995,-2502,809,100,3993,28.67
1528,8185,-2566,808,118,3953,28.66
1620,8315,-2621,804,172,3947,28.65
1739,8438,-2649,797,244,3938,28.64
1857,8573,-2665,788,301,3940,28.67
1955,8728,-2671,771,310,3951,28.65
2031,8883,-2660,777,323,4002,28.65
2094,8984,-2636,788,332,4034,28.64
2146,9051,-2612,758,359,4050,28.64
2199,9092,-2599,757,392,4073,28.63
2257,9129,-2572,779,430,4068,28.64
2309,9086,-2541,812,474,4090,28.64
2359,8895,-2523,886,485,4162,28.65
2379,8479,-2496,999,466,4261,28.64
2378,7883,-2454,1102,431,4334,28.64
2341,7177,-2388,1131,412,4352,28.63
2280,6439,-2322,1080,394,4326,28.64
2211,5777,-2278,960,391,4226,28.62
2134,5295,-2252,787,378,4129,28.63
2050,5003,-2250,641,365,4030,28.66
1985,4893,-2265,524,334,3965,28.68
1927,4885,-2299,424,279,3925,28.67
1881,4936,-2356,341,223,3910,28.64
1868,4955,-2442,310,210,3869,28.64
1889,4976,-2559,314,242,3849,28.64
1902,5003,-2629,327,293,3873,28.64
1883,5041,-2678,343,346,3937,28.64
1812,5083,-2698,375,406,3972,28.63
1710,5087,-2691,392,460,3988,28.64
1605,5078,-2667,371,517,3985,28.63
1499,5047,-2627,334,556,3939,28.65
1410,5037,-2564,304,576,3903,28.66
1314,5040,-2481,260,595,3883,28.67
1224,5089,-2382,187,608,3852,28.65
1127,5189,-2267,87,656,3818,28.66
1015,5360,-2158,-39,681,3761,28.65
919,5594,-2067,-156,686,3697,28.65
836,5909,-1990,-267,642,3610,28.66
771,6320,-1935,-346,582,3574,28.65
713,6749,-1902,-416,505,3571,28.67
639,7155,-1894,-471,461,3598,28.66
552,7509,-1915,-487,413,3645,28.65
412,7836,-1955,-514,375,3689,28.65
246,8166,-2009,-571,357,3683,28.65
81,8571,-2071,-634,365,3629,28.65
-86,9111,-2126,-692,414,3550,28.64
-248,9777,-2166,-730,481,3503,28.63
-402,10463,-2206,-715,533,3512,28.66
-555,11074,-2251,-618,557,3551,28.65
-699,11469,-2261,-441,540,3647,28.62
-823,11540,-2235,-216,531,3723,28.65
-939,11231,-2178,-27,562,3838,28.63
-1078,10660,-2073,64,639,3894,28.63
-1239,9962,-1938,98,696,3922,28.65
-1400,9187,-1774,131,730,3899,28.64
-1549,8321,-1586,178,750,3929,28.64
-1671,7301,-1381,273,771,3977,28.66
-1764,6189,-1121,299,819,3928,28.65
-1865,5135,-833,216,752,4070,28.63
-2042,3991,-595,91,722,4212,28.64
-2239,2873,-395,-122,726,4201,28.64
-2434,2032,-210,-394,717,4126,28.64
-2602,1443,-47,-618,665,4045,28.64
-2780,956,145,-847,632,3982,28.63
-2888,718,283,-1009,636,3949,28.64
-2966,648,409,-1263,636,3842,28.66
-2958,805,488,-1532,567,3590,28.63
-2814,1339,550,-1773,449,3274,28.64
-2577,2237,622,-1922,355,3105,28.64
-2340,3290,684,-1953,327,3152,28.63
-2165,4307,730,-1899,317,3255,28.65
-2035,5250,777,-1777,292,3323,28.65
-1910,6059,835,-1605,254,3408,28.64
-1786,6592,888,-1443,261,3543,28.63
-1684,6916,915,-1315,314,3648,28.64
-1608,7140,947,-1211,375,3741,28.65
-1573,7301,981,-1131,442,3839,28.67
-1530,7328,974,-1078,449,3929,28.68
-1464,7251,922,-1056,361,3977,28.66
-1342,7124,826,-1074,273,4016,28.67
-1170,6992,682,-1102,213,4048,28.67
-974,6879,485,-1130,172,4099,28.66
-768,6757,266,-1092,171,4184,28.67
-568,6603,47,-1037,187,4257,28.66
-367,6408,-151,-963,221,4328,28.66
-156,6102,-342,-918,235,4400,28.63
73,5704,-531,-925,251,4438,28.66
306,5338,-705,-1002,263,4439,28.68
517,5120,-880,-1153,245,4392,28.67
725,5021,-1066,-1306,153,4322,28.65
942,4941,-1277,-1431,49,4243,28.66
1149,4915,-1484,-1536,27,4146,28.65
1338,4936,-1646,-1594,108,4080,28.65
1489,4996,-1765,-1629,237,4021,28.63
1603,5070,-1825,-1633,370,3932,28.64
1704,5123,-1819,-1609,463,3850,28.64
1802,5114,-1767,-1631,508,3755,28.67
1883,5103,-1684,-1676,508,3623,28.62
1950,5099,-1585,-1715,482,3486,28.62
1977,5085,-1476,-1761,427,3394,28.63
1952,5060,-1366,-1777,385,3336,28.65
1851,5036,-1246,-1805,358,3308,28.66
1680,5042,-1133,-1865,358,3245,28.65
1467,5149,-1040,-1950,323,3150,28.64
1165,5477,-920,-2005,293,3044,28.64
910,5831,-823,-2003,311,3013,28.65
648,6185,-731,-1963,343,2996,28.63
398,6531,-650,-1902,363,3032,28.65
161,6825,-586,-1851,373,3074,28.65
-71,7066,-536,-1819,356,3132,28.64
-260,7244,-502,-1815,340,3129,28.62
-405,7400,-493,-1816,330,3144,28.64
-537,7569,-501,-1808,362,3225,28.64
-696,7657,-522,-1774,369,3376,28.66
-880,7883,-526,-1863,369,3354,28.62
-980,8147,-556,-1917,304,3363,28.63
-1013,8328,-614,-1952,201,3422,28.64
-1007,8392,-683,-1984,203,3477,28.63
-976,8397,-751,-2001,317,3482,28.62
-928,8385,-794,-1997,449,3496,28.63
-861,8311,-794,-1950,540,3511,28.62
-769,8125,-755,-1880,589,3583,28.63
-657,7745,-691,-1853,582,3659,28.64
-529,7198,-635,-1876,580,3681,28.64
-372,6640,-585,-1953,534,3643,28.65
-212,6181,-529,-2076,480,3559,28.65
-45,5829,-500,-2170,447,3471,28.64
118,5594,-479,-2260,455,3421,28.64
245,5493,-470,-2342,435,3385,28.64
319,5560,-465,-2443,386,3336,28.64
359,5769,-475,-2508,322,3276,28.65
392,6051,-500,-2564,282,3221,28.64
438,6312,-559,-2602,257,3166,28.64
503,6580,-627,-2629,222,3099,28.66
578,6896,-696,-2656,231,2979,28.65
661,7306,-751,-2709,276,2892,28.65
722,7771,-801,-2729,301,2869,28.63
738,8182,-850,-2694,332,2874,28.63
729,8457,-893,-2642,357,2870,28.63
682,8620,-930,-2601,362,2844,28.63
617,8693,-954,-2573,366,2798,28.65
525,8737,-977,-2601,378,2764,28.64
406,8769,-1009,-2635,329,2745,28.64
249,8750,-1081,-2678,226,2772,28.65
88,8633,-1187,-2716,99,2801,28.64
-86,8414,-1310,-2740,10,2820,28.66
-301,8049,-1488,-2809,-79,2832,28.63
-489,7783,-1643,-2934,-125,2845,28.63
-687,7618,-1802,-3071,-152,2834,28.65
-884,7599,-1964,-3234,-141,2832,28.65
-1067,7691,-2117,-3363,-126,2859,28.63
-1215,7805,-2288,-3478,-170,2886,28.63
-1300,7917,-2456,-3560,-197,2839,28.64
-1297,8119,-2581,-3664,-155,2769,28.62
-1218,8469,-2634,-3746,-30,2674,28.63
-1074,8896,-2636,-3803,175,2665,28.64
-887,9305,-2564,-3730,332,2656,28.64
-689,9617,-2365,-3540,536,2694,28.64
-453,9616,-2051,-3304,709,2800,28.64
-236,9262,-1648,-3115,810,2878,28.66
-48,8636,-1190,-3054,807,2898,28.65
107,7902,-711,-3141,676,2799,28.67
197,7231,-247,-3282,526,2695,28.64
221,6681,204,-3374,456,2583,28.64
